Sensors' Acquisition [Hz]: Acc@52.0 Gyro@52.0 Mag@52.0 
hh:mm:ss.ms, Annotation , AccX [mg], AccY, AccZ, GyroX [mdps], GyroY, GyroZ, MagX [mgauss], MagY, MagZ
18:53:35.467,,-173,-66,1055,-1610,-2310,-840,-42,88,-441
18:53:35.486,,-174,-63,1065,-1470,-2380,-280,-31,82,-439
18:53:35.505,,-174,-53,1068,-980,-2310,70,-40,82,-439
18:53:35.524,,-168,-48,1071,-1260,-1960,420,-39,90,-430
18:53:35.542,,-166,-45,1067,-1820,-1330,420,-34,85,-441
18:53:35.561,,-168,-44,1065,-1960,-980,70,-45,81,-433
18:53:35.580,,-167,-47,1064,-1540,-1190,-350,-46,87,-435
18:53:35.599,,-166,-42,1058,-910,-1610,-420,-43,87,-435
18:53:35.617,,-166,-37,1056,-910,-1820,-280,-39,81,-436
18:53:35.636,,-169,-43,1063,-1190,-2100,-700,-48,82,-439
18:53:35.655,,-167,-49,1072,-420,-2520,-1680,-36,78,-445
18:53:35.674,,-164,-55,1086,560,-2450,-2380,-37,82,-433
18:53:35.693,,-158,-67,1098,560,-1540,-2590,-40,78,-435
18:53:35.711,,-156,-78,1100,980,-70,-2520,-49,84,-435
18:53:35.730,,-157,-81,1095,1890,1680,-2030,-37,93,-442
18:53:35.749,,-162,-80,1077,2380,3290,-1190,-34,82,-421
18:53:35.768,,-172,-70,1056,2660,4620,-70,-45,81,-441
18:53:35.787,,-183,-60,1034,2730,5110,840,-34,91,-438
18:53:35.805,,-194,-47,1012,2730,4760,1400,-37,88,-429
18:53:35.824,,-198,-40,999,2380,3570,1680,-43,90,-433
18:53:35.843,,-195,-40,996,1750,2030,1540,-46,84,-430
18:53:35.862,,-186,-37,999,1610,560,1260,-43,78,-439
18:53:35.881,,-177,-31,1002,1190,-350,1050,-43,82,-436
18:53:35.899,,-171,-36,1008,-70,-700,700,-43,91,-439
18:53:35.918,,-165,-48,1015,-910,-910,140,-40,82,-447
18:53:35.937,,-160,-54,1021,-910,-1260,-210,-40,93,-441
18:53:35.956,,-156,-57,1028,-840,-1470,-280,-37,82,-427
18:53:35.974,,-153,-59,1029,-1050,-1400,-280,-39,88,-435
18:53:35.993,,-154,-55,1034,-1050,-1050,-350,-45,87,-444
18:53:36.012,,-160,-51,1035,-980,-700,-420,-40,90,-448
18:53:36.031,,-165,-46,1030,-560,-420,-490,-43,84,-430
18:53:36.050,,-169,-40,1030,140,-280,-630,-43,84,-430
18:53:36.068,,-173,-33,1021,560,140,-980,-49,82,-441
18:53:36.087,,-177,-35,1017,350,630,-1680,-43,79,-429
18:53:36.106,,-179,-51,1018,-210,770,-2240,-37,87,-438
18:53:36.125,,-180,-61,1012,-210,350,-2450,-48,84,-442
18:53:36.144,,-178,-63,1014,-350,-140,-2170,-46,91,-430
18:53:36.162,,-177,-65,1016,-980,-490,-1750,-43,85,-438
18:53:36.181,,-181,-63,1021,-1400,-770,-1330,-40,84,-439
18:53:36.200,,-183,-63,1027,-1680,-1190,-1050,-45,84,-429
18:53:36.219,,-185,-62,1030,-1470,-1610,-560,-40,82,-439
18:53:36.237,,-182,-57,1037,-1120,-1750,70,-37,87,-447
18:53:36.256,,-177,-57,1041,-910,-1610,840,-45,87,-433
18:53:36.275,,-169,-53,1047,-700,-910,1610,-42,76,-433
18:53:36.294,,-166,-45,1044,-840,-70,2310,-28,90,-441
18:53:36.313,,-161,-41,1041,-1260,560,2730,-37,87,-435
18:53:36.331,,-160,-32,1030,-1260,630,2800,-33,87,-430
18:53:36.350,,-158,-24,1029,-910,70,2520,-43,85,-448
18:53:36.369,,-156,-18,1029,-630,-700,1890,-39,87,-433
18:53:36.388,,-151,-13,1026,70,-1190,980,-31,88,-442
18:53:36.407,,-149,-15,1020,420,-980,-420,-37,84,-441
18:53:36.425,,-148,-22,1011,280,-210,-1890,-37,84,-439
18:53:36.444,,-153,-37,1002,-210,700,-3080,-42,82,-445
18:53:36.463,,-157,-55,1001,-770,1050,-3990,-42,90,-444
18:53:36.482,,-161,-68,999,-1120,980,-4480,-40,81,-444
18:53:36.501,,-163,-79,998,-1610,770,-4270,-39,85,-444
18:53:36.519,,-170,-83,997,-2380,700,-3150,-36,91,-429
18:53:36.538,,-177,-78,1004,-2800,420,-1890,-42,79,-430
18:53:36.557,,-185,-70,1008,-2800,-210,-840,-43,87,-447
18:53:36.576,,-185,-61,1013,-1890,-980,-140,-39,85,-433
18:53:36.595,,-183,-49,1017,-700,-1330,490,-43,79,-438
18:53:36.613,,-176,-42,1014,-210,-1120,910,-46,87,-445
18:53:36.632,,-170,-38,1018,-210,-420,910,-45,84,-450
18:53:36.651,,-166,-44,1016,-630,280,350,-37,90,-439
18:53:36.670,,-162,-53,1016,-770,560,-280,-45,90,-430
18:53:36.688,,-161,-57,1019,-490,420,-560,-48,82,-439
18:53:36.707,,-163,-54,1013,-70,210,-350,-37,96,-438
18:53:36.726,,-166,-46,1012,700,350,-280,-39,88,-441
18:53:36.745,,-170,-44,1008,1190,770,-770,-43,82,-441
18:53:36.764,,-170,-42,995,1680,1470,-1610,-45,84,-442
18:53:36.782,,-174,-45,984,1330,2380,-2240,-36,93,-441
18:53:36.801,,-181,-59,972,70,2800,-2520,-40,88,-436
18:53:36.820,,-188,-72,966,-1050,2100,-2590,-45,93,-442
18:53:36.839,,-192,-82,967,-1540,350,-2170,-43,88,-441
18:53:36.858,,-193,-85,976,-1400,-1890,-1330,-42,88,-439
18:53:36.876,,-186,-80,990,-980,-3710,70,-45,91,-436
18:53:36.895,,-174,-70,1005,-840,-4340,1330,-43,82,-435
18:53:36.914,,-166,-60,1017,-840,-3850,1890,-40,87,-442
18:53:36.933,,-162,-47,1021,-630,-2520,1960,-39,82,-436
18:53:36.952,,-161,-42,1020,-980,-1050,1680,-40,85,-430
18:53:36.970,,-161,-45,1018,-1400,-70,1120,-40,84,-439
18:53:36.989,,-161,-45,1018,-1400,-70,1120,-40,85,-438
18:53:37.008,,-162,-48,1016,-1400,140,420,-36,79,-439
18:53:37.027,,-160,-49,1015,-1470,-420,-210,-42,81,-444
18:53:37.045,,-160,-54,1021,-1890,-1120,-700,-36,88,-442
18:53:37.064,,-164,-58,1027,-1890,-1890,-1260,-36,88,-442
18:53:37.083,,-169,-54,1034,-1050,-2590,-1610,-37,91,-427
18:53:37.102,,-174,-48,1034,0,-2730,-1610,-43,82,-427
18:53:37.121,,-177,-46,1033,700,-2030,-1750,-40,88,-436
18:53:37.139,,-180,-49,1024,1190,-700,-2030,-48,87,-438
18:53:37.158,,-183,-58,1013,1260,770,-2170,-33,82,-433
18:53:37.177,,-185,-73,1002,910,1820,-1890,-42,82,-436
18:53:37.196,,-189,-83,995,420,1750,-910,-43,90,-433
18:53:37.215,,-189,-86,993,0,700,420,-45,82,-436
18:53:37.233,,-183,-80,1003,-350,-910,1750,-37,96,-439
18:53:37.252,,-174,-68,1014,-770,-2450,2800,-40,88,-441
18:53:37.271,,-166,-53,1028,-1050,-3360,3290,-39,90,-438
18:53:37.290,,-158,-37,1042,-1190,-3360,3150,-37,87,-438
18:53:37.308,,-153,-26,1047,-1120,-2730,2800,-39,85,-442
18:53:37.327,,-148,-23,1049,-1050,-1750,2240,-42,84,-429
18:53:37.346,,-148,-23,1044,-770,-630,1330,-39,88,-444
18:53:37.365,,-146,-29,1041,-350,140,420,-42,88,-427
18:53:37.384,,-145,-34,1035,0,420,-280,-42,85,-435
18:53:37.402,,-145,-38,1032,140,280,-630,-40,87,-435
18:53:37.421,,-146,-40,1036,0,-70,-840,-37,84,-433
18:53:37.440,,-151,-37,1033,140,-630,-1260,-28,82,-436
18:53:37.459,,-157,-30,1032,630,-910,-1680,-42,81,-442
18:53:37.478,,-164,-29,1029,630,-630,-2310,-40,79,-430
18:53:37.496,,-170,-39,1024,490,-70,-3080,-43,82,-436
18:53:37.515,,-173,-50,1020,490,490,-3570,-39,78,-424
18:53:37.534,,-174,-69,1014,70,700,-3500,-51,79,-427
18:53:37.553,,-178,-79,1011,-560,700,-2730,-43,84,-430
18:53:37.572,,-181,-84,1015,-1400,350,-1540,-39,87,-433
18:53:37.590,,-181,-80,1019,-1750,-420,-140,-34,81,-424
18:53:37.609,,-178,-60,1027,-1400,-1120,1260,-43,81,-436
18:53:37.628,,-174,-40,1028,-1120,-1400,2030,-39,82,-435
18:53:37.647,,-169,-23,1029,-1050,-910,2170,-37,82,-436
18:53:37.665,,-166,-19,1028,-1750,-140,1400,-40,78,-444
18:53:37.684,,-166,-31,1026,-2520,210,70,-51,84,-435
18:53:37.703,,-162,-46,1032,-2520,-420,-1190,-39,84,-430
18:53:37.722,,-157,-58,1045,-2100,-1610,-1820,-43,84,-441
18:53:37.741,,-151,-67,1061,-1610,-2590,-1960,-40,81,-433
18:53:37.759,,-150,-64,1074,-840,-2450,-1750,-40,88,-439
18:53:37.778,,-155,-61,1079,-280,-1190,-1470,-39,81,-438
18:53:37.797,,-163,-58,1074,280,770,-1330,-43,81,-439
18:53:37.816,,-169,-57,1059,980,2730,-1330,-42,85,-436
18:53:37.835,,-178,-57,1041,1190,4270,-1190,-45,99,-435
18:53:37.853,,-184,-65,1019,1050,4690,-840,-43,73,-439
18:53:37.872,,-188,-65,1009,1120,4060,-210,-39,82,-432
18:53:37.891,,-189,-65,1003,1260,2800,420,-43,90,-444
18:53:37.910,,-185,-58,1003,1540,1330,770,-42,85,-433
18:53:37.928,,-181,-45,1005,1610,490,1120,-45,90,-442
18:53:37.947,,-176,-41,1008,1120,280,1050,-34,88,-439
18:53:37.966,,-175,-41,1006,840,560,630,-45,91,-441
18:53:37.985,,-174,-44,1006,910,910,0,-39,81,-432
18:53:38.004,,-172,-50,999,350,1050,-630,-45,81,-438
18:53:38.022,,-168,-59,1000,-420,910,-910,-43,97,-442
18:53:38.041,,-169,-65,1004,-1470,420,-840,-39,93,-442
18:53:38.060,,-172,-67,1012,-2170,-700,-560,-37,85,-436
18:53:38.079,,-173,-58,1026,-1820,-2310,-140,-37,85,-436
18:53:38.098,,-172,-44,1036,-1050,-3430,210,-51,87,-438
18:53:38.116,,-171,-34,1050,-350,-3360,70,-48,96,-433
18:53:38.135,,-168,-30,1054,210,-2450,-140,-42,82,-444
18:53:38.154,>gest8_up,,,,,,,,,
18:53:38.154,,-169,-29,1052,700,-980,-490,-40,84,-444
18:53:38.173,,-170,-40,1044,630,490,-1120,-43,90,-441
18:53:38.191,,-171,-54,1031,560,1610,-1610,-46,88,-435
18:53:38.210,,-171,-66,1023,280,1820,-1610,-36,87,-430
18:53:38.229,,-170,-69,1016,280,1260,-1190,-40,87,-436
18:53:38.248,,-174,-59,1013,420,560,-560,-54,91,-436
18:53:38.267,,-179,-53,1015,70,-140,-140,-46,93,-441
18:53:38.285,,-183,-44,1013,-210,-490,-280,-31,88,-429
18:53:38.304,,-185,-40,1015,-420,-840,-840,-36,81,-441
18:53:38.323,,-185,-46,1018,-980,-1050,-1470,-43,96,-433
18:53:38.342,,-184,-54,1018,-1330,-1470,-1610,-37,82,-435
18:53:38.361,,-178,-62,1028,-1540,-1890,-1190,-40,85,-433
18:53:38.379,,-172,-62,1034,-1540,-2100,-560,-43,88,-439
18:53:38.398,,-166,-61,1036,-1330,-2100,70,-46,88,-438
18:53:38.417,,-164,-51,1035,-910,-1610,630,-39,90,-439
18:53:38.436,,-164,-43,1027,-980,-1050,1050,-42,91,-435
18:53:38.455,,-163,-39,1020,-1190,-700,1190,-48,79,-435
18:53:38.473,,-161,-32,1021,-1120,-770,910,-34,79,-442
18:53:38.492,,-159,-34,1017,-1260,-1260,140,-42,85,-438
18:53:38.511,,-159,-35,1019,-1190,-1750,-840,-45,93,-433
18:53:38.530,,-162,-39,1019,-1610,-2100,-1260,-45,90,-429
18:53:38.548,,-167,-46,1020,-2170,-2450,-1540,-37,93,-435
18:53:38.567,,-168,-50,1018,-2170,-2870,-1820,-39,79,-424
18:53:38.586,,-171,-52,1011,-2240,-3010,-1820,-42,85,-439
18:53:38.605,,-170,-59,1007,-3010,-2940,-1680,-46,91,-436
18:53:38.624,,-171,-66,1004,-3570,-2940,-1400,-45,82,-433
18:53:38.642,,-170,-65,999,-3780,-3290,-1050,-45,82,-433
18:53:38.661,,-170,-67,988,-4200,-3850,-560,-42,79,-444
18:53:38.680,,-170,-67,978,-4690,-4690,-70,-31,79,-439
18:53:38.699,,-168,-67,972,-5530,-6020,210,-40,88,-432
18:53:38.718,,-168,-67,970,-6230,-7980,560,-36,82,-435
18:53:38.736,,-164,-63,966,-6580,-10080,630,-42,84,-439
18:53:38.755,,-161,-51,969,-7490,-11900,490,-37,76,-438
18:53:38.774,,-161,-51,969,-7490,-11900,280,-39,70,-423
18:53:38.793,,-159,-47,980,-9590,-13580,280,-31,79,-427
18:53:38.811,,-158,-49,992,-11060,-15540,140,-31,79,-424
18:53:38.830,,-165,-57,1018,-10850,-17640,140,-27,67,-427
18:53:38.849,,-185,-82,1067,-8820,-20720,560,-36,61,-432
18:53:38.868,,-207,-119,1137,-3080,-26180,2310,-30,63,-427
18:53:38.887,,-216,-122,1269,7210,-34090,7210,-36,61,-418
18:53:38.905,,-190,-75,1517,18900,-43260,15470,-31,51,-418
18:53:38.924,,-116,0,1805,29050,-49280,25480,-31,40,-403
18:53:38.943,,-3,114,1993,28280,-43820,31080,-36,45,-405
18:53:38.962,,86,94,1998,17430,-21560,30940,-36,42,-405
18:53:38.981,,116,-61,1998,17570,10990,27440,-31,46,-409
18:53:38.999,,148,-136,1998,42840,45010,22610,-45,58,-415
18:53:39.018,,144,-107,1998,75670,80360,17010,-51,78,-429
18:53:39.037,,124,-62,1996,100240,113120,12670,-64,96,-424
18:53:39.056,,90,-72,1835,111510,140700,10150,-85,105,-430
18:53:39.074,,71,-112,1569,117180,164290,8540,-94,132,-451
18:53:39.093,,59,-136,1340,122500,184520,7070,-94,132,-451
18:53:39.112,,51,-160,1102,125440,201460,5320,-109,162,-454
18:53:39.131,,31,-174,874,125370,214480,4130,-129,193,-456
18:53:39.150,,-1,-183,672,123340,222110,5250,-159,223,-468
18:53:39.168,,-60,-206,489,123550,222740,7000,-174,246,-460
18:53:39.187,,-94,-171,337,126560,216580,8050,-178,283,-456
18:53:39.206,,-137,-142,127,124250,205870,8050,-202,315,-445
18:53:39.225,,-184,-89,-68,111650,191660,7280,-225,331,-436
18:53:39.244,,-253,-37,-228,91000,174930,9240,-225,364,-423
18:53:39.262,,-321,26,-325,66500,154840,13860,-226,385,-421
18:53:39.281,,-376,98,-414,46690,129710,21280,-238,396,-417
18:53:39.300,,-417,191,-489,36470,101360,28490,-258,402,-408
18:53:39.319,,-422,317,-559,28560,72730,32690,-246,403,-409
18:53:39.338,,-416,415,-577,16450,45640,32830,-252,414,-399
18:53:39.356,,-399,496,-537,1750,19600,30520,-258,412,-408
18:53:39.375,,-391,522,-507,-14280,-5180,25550,-247,411,-405
18:53:39.394,,-389,521,-480,-29890,-28070,18200,-250,408,-418
18:53:39.413,,-387,489,-414,-44940,-49490,10640,-247,391,-432
18:53:39.431,,-371,446,-320,-60340,-69790,3640,-241,379,-427
18:53:39.450,,-343,386,-224,-75670,-88900,-2520,-216,367,-430
18:53:39.469,,-308,307,-116,-91140,-106540,-9310,-207,357,-436
18:53:39.488,,-282,244,3,-106400,-122640,-16870,-201,337,-448
18:53:39.507,,-284,196,112,-122920,-136640,-24150,-180,319,-462
18:53:39.525,,-292,139,207,-144130,-149030,-32060,-148,303,-471
18:53:39.544,,-276,59,325,-165550,-160160,-40740,-132,274,-486
18:53:39.563,,-287,-62,547,-179270,-170100,-50680,-111,250,-483
18:53:39.582,,-288,-296,860,-169890,-181930,-61740,-91,231,-486
18:53:39.601,,-226,-379,1115,-129360,-194530,-71190,-60,201,-483
18:53:39.619,,-208,-291,1311,-76790,-198660,-70630,-69,175,-471
18:53:39.638,,-147,-89,1558,-46340,-195580,-65800,-75,145,-454
18:53:39.657,,-81,91,1740,-62160,-179900,-61040,-57,129,-463
18:53:39.676,,-59,89,1814,-111790,-154350,-57120,-37,112,-451
18:53:39.694,,-49,-201,1861,-151480,-131110,-54110,-25,99,-444
18:53:39.713,,-10,-447,1914,-138880,-116270,-52570,-19,81,-441
18:53:39.732,,20,-430,1942,-84770,-105490,-47600,-15,73,-439
18:53:39.751,,25,-312,1922,-36610,-92610,-36680,-12,55,-421
18:53:39.770,,2,-167,1899,-20860,-73640,-23310,-15,51,-423
18:53:39.788,,-34,-152,1800,-30660,-50540,-10710,-9,49,-415
18:53:39.807,,-74,-191,1676,-34370,-28280,-2520,-9,48,-430
18:53:39.826,,-123,-168,1534,-21980,-9170,490,-6,49,-412
18:53:39.845,,-158,-124,1402,-6510,5250,700,-9,52,-421
18:53:39.864,,-167,-112,1282,1890,15890,420,-1,49,-432
18:53:39.882,,-160,-136,1167,5250,23310,1120,-9,48,-423
18:53:39.901,,-154,-164,1073,7420,27860,2520,-6,52,-427
18:53:39.920,,-145,-170,1004,9590,29330,4410,0,58,-430
18:53:39.939,,-138,-168,945,10150,28350,6160,-7,63,-421
18:53:39.957,,-135,-152,894,9170,25690,7700,-9,61,-427
18:53:39.976,,-132,-143,873,7210,21770,9030,-6,73,-432
18:53:39.995,,-127,-133,869,4830,17080,9240,-4,76,-429
18:53:40.014,,-124,-122,880,2730,12110,8680,-4,70,-432
18:53:40.033,,-125,-100,902,420,7280,7280,-13,64,-426
18:53:40.051,,-124,-91,924,-2520,2940,4970,-6,75,-445
18:53:40.070,,-116,-90,953,-4200,-910,2240,0,70,-433
18:53:40.089,,-118,-99,987,-3990,-3850,-70,0,70,-433
18:53:40.108,,-111,-103,1020,-2590,-6230,-1540,-7,69,-433
18:53:40.127,,-109,-101,1032,-1610,-7420,-2030,-1,72,-429
18:53:40.145,,-106,-94,1039,-1750,-7490,-1890,-1,75,-438
18:53:40.164,,-109,-94,1044,-3500,-6580,-1680,-4,73,-438
18:53:40.183,,-115,-97,1061,-5670,-5390,-1680,-4,70,-439
18:53:40.202,,-116,-113,1087,-6650,-5040,-2240,-1,57,-436
18:53:40.220,,-112,-123,1102,-5390,-5530,-3010,-3,70,-433
18:53:40.239,,-106,-117,1111,-2660,-5670,-3570,1,70,-420
18:53:40.258,,-99,-114,1119,-980,-4900,-3990,1,69,-429
18:53:40.277,,-97,-120,1120,-910,-3150,-4200,-4,64,-433
18:53:40.296,,-102,-134,1108,-1190,-630,-4900,-1,64,-426
18:53:40.314,,-114,-144,1092,-490,1960,-5460,-3,61,-438
18:53:40.333,,-129,-150,1078,0,3990,-5460,-9,69,-444
18:53:40.352,,-141,-161,1060,-770,4900,-5040,-3,67,-430
18:53:40.371,,-148,-170,1052,-1120,4690,-4270,-3,76,-433
18:53:40.390,,-157,-168,1051,-700,3780,-3150,-3,70,-439
18:53:40.408,,-162,-161,1045,-210,2520,-1750,-6,73,-435
18:53:40.427,,-159,-151,1046,210,1260,-280,-7,75,-436
18:53:40.446,,-150,-139,1048,840,630,980,-6,70,-436
18:53:40.465,,-142,-129,1050,1470,700,1470,-9,63,-435
18:53:40.483,,-131,-126,1050,1890,1120,1470,-3,67,-438
18:53:40.502,,-124,-123,1044,2170,1540,1540,-7,67,-432
18:53:40.521,,-123,-124,1037,2170,1820,1750,0,72,-426
18:53:40.540,,-128,-122,1037,2520,1540,1890,-7,63,-429
18:53:40.559,,-130,-122,1035,2800,1050,1680,-6,72,-438
18:53:40.577,,-130,-117,1035,2800,1050,1680,-6,73,-435
18:53:40.596,,-129,-113,1040,3500,700,1050,-12,76,-432
18:53:40.615,,-126,-104,1043,4200,1330,0,-10,69,-430
18:53:40.634,,-124,-101,1046,3640,3010,-1470,-12,67,-427
18:53:40.653,,-120,-104,1046,1400,4830,-3010,-3,70,-441
18:53:40.671,,-116,-122,1043,-910,6160,-4200,-3,64,-436
18:53:40.690,,-121,-133,1039,-1750,6720,-4760,-16,73,-435
18:53:40.709,,-126,-137,1033,-1750,6090,-4410,-4,76,-435
18:53:40.728,,-127,-135,1035,-1260,4900,-3430,4,76,-439
18:53:40.747,,-124,-132,1032,0,3430,-2310,-9,72,-445
18:53:40.765,,-125,-115,1024,1330,2660,-1750,-10,76,-432
18:53:40.784,,-131,-105,1031,1330,2800,-1750,-13,70,-442
18:53:40.803,,-140,-110,1034,420,3010,-2520,-12,75,-432
18:53:40.822,,-145,-117,1032,-140,2730,-3780,-10,75,-435
18:53:40.840,,-153,-123,1033,-700,2030,-4690,-18,72,-442
18:53:40.859,,-160,-135,1037,-1610,980,-5180,-12,75,-432
18:53:40.878,,-173,-147,1048,-2240,-140,-5320,-15,78,-442
18:53:40.897,,-181,-156,1054,-2450,-1540,-5250,-12,81,-438
18:53:40.916,,-187,-162,1063,-2450,-2450,-4900,-9,78,-430
18:53:40.934,,-187,-168,1076,-2660,-2730,-4480,-12,70,-438
18:53:40.953,,-184,-176,1084,-3150,-2660,-4060,-15,75,-436
18:53:40.972,,-182,-177,1085,-3220,-2100,-3150,-13,72,-439
18:53:40.991,,-182,-173,1090,-2940,-1330,-1400,-12,78,-436
18:53:41.010,,-182,-166,1091,-2520,-630,560,-7,72,-438
18:53:41.028,,-179,-155,1086,-1610,-210,2170,-13,75,-433
18:53:41.047,,-171,-141,1077,-560,210,3080,-16,79,-442
18:53:41.066,,-160,-136,1076,-280,700,3640,-7,81,-435
18:53:41.085,,-150,-135,1084,-420,1050,3780,-7,81,-435
18:53:41.104,,-144,-137,1084,-70,1050,3710,-9,78,-441
18:53:41.122,,-137,-129,1086,840,1050,3430,-10,75,-444
18:53:41.141,,-129,-124,1083,910,1120,3010,-4,88,-441
18:53:41.160,,-126,-125,1084,350,1260,2590,-10,76,-436
18:53:41.179,,-125,-127,1091,490,910,1890,-13,67,-436
18:53:41.197,,-123,-121,1092,1400,210,980,-12,81,-441
18:53:41.216,,-125,-107,1089,2170,-70,420,-7,85,-436
18:53:41.235,,-136,-105,1084,2170,210,350,-7,81,-438
18:53:41.254,,-144,-103,1080,3080,700,140,0,76,-438
18:53:41.273,,-152,-101,1066,4270,1470,-350,-10,81,-442
18:53:41.291,,-164,-109,1049,4410,2660,-770,-15,78,-435
18:53:41.310,,-169,-128,1040,3780,3430,-1050,-7,73,-435
18:53:41.329,,-165,-142,1032,3080,3500,-980,-12,84,-445
18:53:41.348,,-157,-153,1029,2800,2870,-420,-13,81,-441
18:53:41.367,,-151,-148,1039,2730,2170,350,-15,79,-439
18:53:41.385,,-148,-135,1039,2450,1820,1120,-16,82,-444
18:53:41.404,,-151,-120,1038,1750,1890,1400,-16,76,-441
18:53:41.423,,-154,-113,1042,980,2240,1190,-16,84,-441
18:53:41.442,,-158,-102,1035,700,2520,630,-6,76,-438
18:53:41.461,,-165,-96,1031,0,2870,-280,-6,81,-436
18:53:41.479,,-172,-103,1030,-1120,3010,-1540,-13,87,-441
18:53:41.498,,-183,-109,1024,-1400,2590,-2590,-12,78,-436
18:53:41.517,,-187,-116,1021,-1330,1820,-3220,-13,75,-439
18:53:41.536,,-191,-125,1022,-1260,910,-3430,-16,79,-441
18:53:41.554,,-194,-134,1026,-1470,350,-3290,-15,84,-444
18:53:41.573,,-193,-144,1029,-2170,0,-2940,-10,90,-442
18:53:41.592,,-191,-155,1031,-3010,-280,-2380,-15,82,-442
18:53:41.611,,-185,-164,1041,-3430,-560,-1400,-15,82,-439
18:53:41.630,,-178,-165,1054,-3150,-840,70,-12,91,-435
18:53:41.648,,-167,-158,1060,-2660,-980,1820,-15,76,-442
18:53:41.667,,-160,-144,1067,-2030,-350,3710,-15,79,-442
18:53:41.686,,-160,-123,1065,-1330,490,4900,-15,78,-448
18:53:41.705,,-158,-114,1062,-560,1050,5110,-7,78,-448
18:53:41.724,,-157,-102,1058,980,1330,4340,-15,87,-432
18:53:41.742,,-156,-96,1050,2030,1400,3290,-12,88,-441
18:53:41.761,,-157,-97,1039,1820,1330,2380,-6,90,-436
18:53:41.780,,-157,-105,1035,1610,1120,1400,-15,87,-438
18:53:41.799,,-157,-111,1031,2170,700,490,-12,85,-447
18:53:41.817,,-161,-111,1024,2800,700,-210,-10,88,-445
18:53:41.836,,-167,-112,1013,2730,1120,-840,-6,94,-451
18:53:41.855,,-170,-120,1001,2100,1960,-980,-9,82,-439
18:53:41.874,,-173,-125,992,1610,2800,-700,-10,76,-438
18:53:41.893,,-176,-132,980,1050,3080,-350,-7,90,-442
18:53:41.911,,-182,-133,975,560,3150,-70,-9,82,-445
18:53:41.930,,-186,-135,977,-490,2380,350,-7,85,-450
18:53:41.949,,-179,-141,987,-1540,490,840,-10,85,-442
18:53:41.968,,-168,-136,1003,-1260,-1610,1610,-9,90,-442
18:53:41.987,,-163,-121,1018,-1190,-3150,2170,-10,82,-453
18:53:42.005,,-161,-110,1032,-1680,-3850,2520,-16,85,-438
18:53:42.024,,-158,-100,1041,-1470,-3780,2520,-12,90,-441
18:53:42.043,,-161,-83,1046,-910,-3010,2240,0,88,-438
18:53:42.062,,-166,-77,1045,-980,-1960,1680,-7,87,-430
18:53:42.081,,-165,-77,1041,-1190,-910,630,-13,79,-445
18:53:42.099,,-163,-83,1032,-1540,-280,-700,-13,79,-445
18:53:42.118,,-159,-98,1029,-2030,-210,-1820,-13,87,-448
18:53:42.137,,-157,-112,1033,-2030,-700,-2240,-7,84,-447
18:53:42.156,,-154,-117,1041,-1540,-1330,-2240,-10,81,-436
18:53:42.174,,-151,-122,1037,-560,-1750,-2310,-10,87,-439
18:53:42.193,,-150,-116,1036,1260,-1050,-2450,-12,93,-448
18:53:42.212,,-154,-110,1023,2380,630,-2520,-7,84,-441
18:53:42.231,,-161,-110,1005,2590,2800,-2520,-10,84,-435
18:53:42.250,,-170,-113,985,2800,4690,-2730,-12,84,-442
18:53:42.268,,-179,-116,966,2730,5600,-3220,-9,88,-439
18:53:42.287,,-188,-122,954,1540,5250,-3710,-6,85,-442
18:53:42.306,,-196,-133,959,-280,3500,-3990,-9,85,-442
18:53:42.325,,-199,-141,973,-1960,700,-4060,-15,91,-448
18:53:42.344,,-201,-143,996,-3290,-2660,-3920,-12,94,-429
18:53:42.362,,-201,-143,996,-3290,-2660,-3920,-10,84,-436
18:53:42.381,,-196,-140,1024,-3990,-5740,-3640,-12,91,-441
18:53:42.400,,-191,-136,1049,-3990,-7770,-3080,-12,84,-447
18:53:42.419,,-185,-125,1067,-3220,-7910,-2170,-16,85,-435
18:53:42.438,,-180,-119,1070,-2730,-6300,-1050,-16,84,-445
18:53:42.456,,-173,-115,1062,-2310,-3500,-280,-9,81,-442
18:53:42.475,,-170,-121,1049,-2240,-420,280,-15,81,-453
18:53:42.494,,-163,-134,1034,-2170,1610,770,-21,90,-435
18:53:42.513,,-157,-141,1022,-1960,2310,1680,-10,79,-447
18:53:42.531,,-151,-142,1015,-1890,1610,3080,-12,88,-445
18:53:42.550,,-144,-134,1028,-1260,0,4620,-9,90,-442
18:53:42.569,,-134,-112,1039,-70,-1890,5810,-10,81,-442
18:53:42.588,,-125,-86,1049,1330,-2870,6090,-7,84,-453
18:53:42.607,,-127,-61,1052,2100,-2240,5320,-10,85,-445
18:53:42.625,,-135,-44,1045,1960,-420,3850,-15,87,-435
18:53:42.644,,-148,-43,1034,980,1750,1540,-7,88,-453
18:53:42.663,,-162,-58,1018,-420,3150,-1260,-13,84,-441
18:53:42.682,,-173,-84,1008,-1120,3220,-3920,-13,84,-442
18:53:42.701,,-177,-108,1008,-1050,2030,-5530,-10,79,-447
18:53:42.719,,-174,-126,1011,-490,630,-6020,-7,87,-435
18:53:42.738,,-169,-138,1011,140,0,-5600,-9,84,-448
18:53:42.757,,-165,-143,1006,840,490,-4690,-6,87,-444
18:53:42.776,,-166,-144,996,1400,2030,-3500,-16,90,-442
18:53:42.795,,-170,-145,983,1050,3780,-2170,-15,82,-432
18:53:42.813,,-173,-147,969,0,4690,-980,-19,87,-448
18:53:42.832,,-179,-147,965,-1400,4200,0,-18,87,-448
18:53:42.851,,-179,-142,975,-2660,1960,980,-13,76,-439
18:53:42.870,,-177,-132,997,-3570,-1400,1610,-7,88,-442
18:53:42.889,,-173,-118,1028,-4130,-5040,1890,-10,88,-442
18:53:42.907,,-164,-102,1061,-4060,-7700,1610,-10,91,-438
18:53:42.926,,-160,-79,1085,-3220,-8540,840,-10,81,-439
18:53:42.945,,-160,-62,1093,-2450,-7420,-560,-10,81,-445
18:53:42.964,,-168,-58,1083,-1890,-4550,-2660,-12,87,-441
18:53:42.982,,-176,-73,1061,-1400,-1050,-5460,-6,79,-441
18:53:43.001,,-185,-107,1033,-1260,2310,-8190,-15,85,-433
18:53:43.020,,-190,-147,1013,-1820,4270,-9730,-4,79,-453
18:53:43.039,,-195,-185,992,-3220,4410,-9590,-7,88,-444
18:53:43.058,,-195,-217,990,-3920,2800,-8260,-9,78,-442
18:53:43.076,,-193,-225,1001,-3220,0,-5740,-15,84,-436
18:53:43.095,,-185,-207,1016,-2730,-2660,-2100,-10,91,-448
18:53:43.114,,-179,-181,1039,-3710,-4340,1540,-10,91,-448
18:53:43.133,,-173,-152,1063,-4480,-5250,4060,-9,91,-438
18:53:43.152,,-165,-121,1081,-3780,-5740,5390,-9,79,-445
18:53:43.170,,-161,-89,1091,-2450,-5460,5810,-4,84,-442
18:53:43.189,,-157,-68,1098,-1820,-4480,5320,-4,76,-427
18:53:43.208,,-149,-61,1100,-1610,-3430,3780,-12,78,-436
18:53:43.227,,-146,-69,1102,-1330,-2450,1330,-10,79,-444
18:53:43.245,,-145,-87,1103,-1190,-1890,-1470,0,87,-444
18:53:43.264,,-145,-111,1100,-1330,-1260,-3990,-9,78,-442
18:53:43.283,,-146,-133,1094,-1330,-560,-5600,-6,79,-442
18:53:43.302,,-150,-152,1083,-560,560,-6160,-3,82,-450
18:53:43.321,,-156,-160,1066,910,2310,-6020,-6,87,-445
18:53:43.339,,-163,-162,1039,1890,4550,-5180,-9,87,-430
18:53:43.358,,-174,-162,1010,2100,6440,-3780,-15,87,-439
18:53:43.377,,-184,-163,985,1540,7210,-2520,-7,94,-442
18:53:43.396,,-193,-164,973,840,6300,-1470,-9,81,-444
18:53:43.415,,-198,-162,974,70,3850,-490,-6,82,-438
18:53:43.433,,-200,-155,992,-840,350,490,-13,85,-444
18:53:43.452,,-195,-152,1018,-2030,-3640,1400,-16,84,-444
18:53:43.471,,-183,-140,1049,-2450,-7350,2100,-9,90,-439
18:53:43.490,,-168,-126,1085,-2100,-9730,2450,-12,87,-444
18:53:43.509,,-154,-109,1112,-1190,-10080,2450,-10,85,-448
18:53:43.527,,-145,-93,1123,-560,-8190,2240,-7,81,-445
18:53:43.546,,-144,-89,1113,-420,-4690,1680,-7,81,-439
18:53:43.565,,-145,-98,1096,-280,-910,280,-9,76,-439
18:53:43.584,,-144,-121,1082,70,2030,-1260,-7,84,-439
18:53:43.602,,-142,-146,1065,280,3290,-2030,-10,84,-444
18:53:43.621,,-140,-160,1058,490,3080,-1540,-10,81,-445
18:53:43.640,,-138,-161,1057,770,1820,-420,-7,85,-439
18:53:43.659,,-141,-149,1060,1610,490,560,-4,82,-454
18:53:43.678,,-146,-125,1061,3080,-140,1120,-10,75,-439
18:53:43.696,,-154,-103,1057,3990,420,700,-9,75,-444
18:53:43.715,,-164,-94,1048,4060,2030,-350,-7,84,-444
18:53:43.734,,-176,-100,1031,3850,4060,-1750,-9,90,-439
18:53:43.753,,-187,-109,1016,4060,5600,-3010,-13,84,-436
18:53:43.772,,-194,-117,1005,4060,6300,-3780,-21,78,-441
18:53:43.791,<gest8_up,,,,,,,,,
18:53:43.790,,-196,-128,991,3290,6300,-4130,-18,88,-444
18:53:43.809,,-197,-140,989,2030,5460,-4200,-12,90,-436
18:53:43.828,,-199,-156,991,490,3640,-4060,-15,79,-444
18:53:43.847,,-197,-167,1000,-490,700,-3430,-19,91,-441
18:53:43.866,,-188,-169,1016,-420,-2660,-2100,-15,84,-447
18:53:43.884,,-180,-159,1032,350,-5040,-140,-19,78,-430
18:53:43.903,,-170,-142,1046,700,-5880,1820,-13,82,-442
18:53:43.922,,-164,-127,1052,490,-5180,3080,-16,90,-447
18:53:43.941,,-160,-117,1055,70,-3710,3500,-19,87,-433
18:53:43.960,,-157,-114,1057,-210,-2450,3290,-19,82,-438
18:53:43.978,,-155,-109,1054,-210,-1750,2940,-18,85,-445
18:53:43.997,,-157,-106,1057,-210,-1470,2660,-10,87,-442
18:53:44.016,,-157,-107,1062,-280,-1820,2310,-10,85,-447
18:53:44.035,,-157,-100,1064,420,-2380,1820,-10,87,-445
18:53:44.053,,-159,-92,1067,1120,-2730,1120,-19,84,-439
18:53:44.072,,-166,-91,1064,840,-2450,280,-21,87,-438
18:53:44.091,,-169,-101,1066,280,-2100,-840,-21,85,-444
18:53:44.110,,-169,-118,1065,140,-1750,-1890,-13,76,-439
18:53:44.129,,-167,-132,1059,350,-1400,-2310,-13,76,-439
18:53:44.147,,-167,-132,1059,630,-840,-1750,-19,82,-436
18:53:44.166,,-164,-143,1056,630,-840,-1750,-10,81,-444
18:53:44.185,,-162,-146,1053,980,-210,-490,-9,81,-441
18:53:44.204,,-160,-140,1048,1540,420,840,-22,79,-438
18:53:44.223,,-157,-129,1038,2240,1050,1890,-12,81,-433
18:53:44.241,,-158,-116,1028,2660,1960,2450,-15,85,-441
18:53:44.260,,-161,-110,1018,2800,2800,2520,-16,78,-448
18:53:44.279,,-161,-109,1005,3080,3220,2310,-15,85,-447
18:53:44.298,,-163,-105,994,3290,3360,2030,-15,78,-442
18:53:44.316,,-162,-110,988,2590,2870,1820,-4,96,-439
18:53:44.335,,-163,-110,989,2100,2030,1750,-10,79,-447
18:53:44.354,,-166,-103,995,1610,980,1890,-16,88,-445
18:53:44.373,,-168,-94,998,980,-210,1960,-15,85,-438
18:53:44.392,,-168,-82,1009,700,-980,1890,-13,82,-441
18:53:44.410,,-169,-74,1016,490,-1330,1540,-13,75,-436
18:53:44.429,,-169,-68,1021,700,-1120,840,-16,85,-433
18:53:44.448,,-168,-67,1020,490,-420,-70,-10,79,-447
18:53:44.467,,-168,-77,1016,-560,420,-1120,-18,85,-447
18:53:44.486,,-169,-96,1015,-1540,840,-2170,-18,81,-439
18:53:44.504,,-168,-115,1016,-1960,280,-2870,-13,81,-433
18:53:44.523,,-164,-124,1020,-1820,-770,-2800,-6,87,-444
18:53:44.542,,-159,-127,1021,-1820,-1610,-2030,-18,84,-442
18:53:44.561,,-158,-121,1024,-1890,-1610,-770,-15,82,-444
18:53:44.580,,-159,-114,1027,-2520,-1120,0,-10,82,-441
18:53:44.598,,-160,-111,1024,-2870,-840,280,-12,82,-444
18:53:44.617,,-160,-106,1024,-2800,-980,210,-22,87,-442
18:53:44.636,,-158,-107,1032,-3570,-1820,350,-13,87,-441
18:53:44.655,,-150,-111,1045,-3990,-3150,490,-15,82,-442
18:53:44.674,,-143,-104,1063,-3150,-4410,280,-12,79,-435
18:53:44.692,,-145,-101,1073,-2240,-4830,-350,-25,82,-441
