Sensors' Acquisition [Hz]: Acc@52.0 Gyro@52.0 Mag@52.0 
hh:mm:ss.ms, Annotation , AccX [mg], AccY, AccZ, GyroX [mdps], GyroY, GyroZ, MagX [mgauss], MagY, MagZ
13:20:11.387,,-9,-29,1061,-840,-1190,-350,381,22,-124
13:20:11.406,,-7,-25,1058,-490,-1190,-280,385,16,-123
13:20:11.425,,-10,-27,1058,-630,-1050,-280,379,18,-129
13:20:11.444,,-9,-29,1054,-560,-1120,-420,369,12,-123
13:20:11.462,,-11,-26,1053,-140,-1400,-560,366,18,-126
13:20:11.481,,-8,-27,1051,140,-1890,-770,379,19,-120
13:20:11.500,,-4,-24,1051,350,-1890,-980,378,19,-117
13:20:11.519,,-3,-26,1055,-140,-1680,-1120,385,22,-121
13:20:11.538,,-5,-33,1055,-490,-1610,-1190,376,22,-120
13:20:11.556,,-5,-29,1057,350,-1820,-1330,379,16,-115
13:20:11.575,,-5,-20,1054,560,-1890,-1330,387,22,-124
13:20:11.594,,-5,-22,1054,0,-1820,-1330,376,19,-124
13:20:11.613,,-7,-21,1059,-280,-1400,-1400,376,22,-121
13:20:11.632,,-7,-27,1060,-140,-1540,-1470,378,15,-130
13:20:11.650,,-8,-27,1060,560,-1680,-1610,379,15,-117
13:20:11.669,,-8,-30,1060,560,-1960,-1470,378,12,-124
13:20:11.688,,-6,-37,1060,490,-1820,-1120,379,19,-121
13:20:11.707,,-5,-38,1061,630,-1470,-630,381,19,-127
13:20:11.726,,-6,-39,1061,350,-910,-70,378,16,-129
13:20:11.744,,-7,-42,1059,-140,-350,490,376,19,-129
13:20:11.763,,-9,-37,1054,-140,140,840,373,18,-121
13:20:11.782,,-12,-35,1049,-210,280,1120,375,13,-118
13:20:11.801,,-12,-32,1047,0,70,1330,379,12,-121
13:20:11.819,,-9,-23,1043,420,-140,1260,376,12,-129
13:20:11.838,,-10,-21,1038,-280,-70,1260,379,18,-126
13:20:11.857,,-10,-32,1037,-1470,-140,1260,381,13,-118
13:20:11.876,,-9,-38,1040,-1680,-560,1400,382,16,-130
13:20:11.895,,-9,-40,1037,-1540,-1330,1750,376,16,-126
13:20:11.913,,-7,-38,1037,-1470,-2030,2030,372,22,-123
13:20:11.932,,-5,-37,1038,-1960,-2450,2310,376,21,-121
13:20:11.951,,-7,-35,1040,-2660,-2590,2800,379,21,-130
13:20:11.970,,-9,-36,1042,-3220,-2660,3010,373,21,-126
13:20:11.989,,-12,-38,1044,-3010,-3010,3220,379,22,-123
13:20:12.007,,-12,-37,1050,-2450,-3780,3290,379,18,-115
13:20:12.026,,-10,-32,1057,-1400,-4620,3220,379,18,-115
13:20:12.045,,-4,-23,1071,-630,-5110,2940,381,19,-118
13:20:12.064,,2,-15,1077,-770,-4900,2450,381,24,-130
13:20:12.083,,10,-15,1085,-770,-4200,1960,378,18,-124
13:20:12.101,,15,-14,1090,-280,-2870,1400,384,22,-124
13:20:12.120,,16,-11,1087,140,-1470,910,376,21,-124
13:20:12.139,,14,-12,1079,-70,-210,630,381,25,-121
13:20:12.158,,9,-16,1069,-280,630,350,381,24,-126
13:20:12.177,,5,-18,1060,210,770,0,384,25,-121
13:20:12.195,,3,-18,1053,980,560,-280,379,25,-121
13:20:12.214,,2,-22,1048,1050,0,-560,372,25,-118
13:20:12.233,,2,-31,1051,1190,-560,-630,372,27,-120
13:20:12.252,,5,-31,1053,1820,-1190,-770,390,24,-117
13:20:12.271,,7,-29,1051,1610,-1190,-770,379,25,-130
13:20:12.289,,5,-35,1049,560,-700,-560,381,21,-123
13:20:12.308,,2,-40,1050,490,-350,-280,378,22,-123
13:20:12.327,,-3,-33,1047,770,-140,-140,381,18,-129
13:20:12.346,,-5,-32,1044,210,-210,140,379,25,-121
13:20:12.365,,-4,-35,1044,-210,-560,210,378,21,-120
13:20:12.383,,-2,-31,1045,140,-980,140,376,21,-123
13:20:12.402,,1,-31,1049,560,-1260,-140,373,22,-127
13:20:12.421,,2,-30,1050,560,-1190,-350,376,18,-126
13:20:12.440,,0,-30,1052,-210,-840,-140,385,21,-124
13:20:12.459,,0,-34,1052,-910,-700,210,378,24,-123
13:20:12.477,,3,-28,1053,-560,-840,490,379,27,-130
13:20:12.496,,0,-23,1051,-280,-910,490,381,19,-127
13:20:12.515,,0,-22,1052,-280,-770,140,379,21,-118
13:20:12.534,,0,-22,1050,-490,-630,-210,376,24,-127
13:20:12.553,,-2,-28,1050,-980,-700,-280,382,24,-124
13:20:12.571,,-3,-32,1049,-1120,-1260,-70,372,15,-118
13:20:12.590,,0,-32,1049,-560,-1890,280,373,25,-129
13:20:12.609,,2,-28,1055,140,-2450,420,378,21,-118
13:20:12.628,,5,-25,1057,210,-2450,350,384,22,-124
13:20:12.647,,7,-26,1058,-350,-2030,350,378,21,-120
13:20:12.665,,8,-31,1057,-910,-1470,350,370,16,-123
13:20:12.684,,8,-33,1053,-980,-1050,350,378,36,-123
13:20:12.703,,6,-33,1053,-910,-840,560,378,22,-124
13:20:12.722,,5,-33,1052,-560,-980,770,385,22,-129
13:20:12.741,,6,-23,1050,-140,-1190,630,376,22,-121
13:20:12.759,,7,-22,1050,-490,-1190,560,378,28,-124
13:20:12.778,,8,-29,1054,-700,-1120,420,370,31,-121
13:20:12.797,,7,-26,1054,-560,-980,350,375,27,-123
13:20:12.816,,7,-27,1055,-770,-910,350,379,27,-129
13:20:12.835,,5,-31,1055,-770,-910,490,378,21,-124
13:20:12.853,,5,-31,1055,-210,-980,490,381,22,-117
13:20:12.872,,5,-29,1059,140,-910,560,384,30,-124
13:20:12.891,,3,-26,1057,-280,-840,630,382,21,-121
13:20:12.910,,2,-29,1059,-700,-770,700,376,19,-130
13:20:12.929,,2,-27,1058,-280,-770,630,372,25,-124
13:20:12.947,,4,-25,1057,70,-560,560,373,22,-126
13:20:12.966,,4,-24,1060,-140,-350,630,373,30,-130
13:20:12.985,,1,-29,1059,-560,-210,630,375,27,-121
13:20:13.004,,2,-27,1059,-350,-140,770,381,27,-129
13:20:13.023,,3,-26,1057,-560,140,1050,370,19,-121
13:20:13.041,,4,-31,1052,-770,350,1050,370,19,-121
13:20:13.060,,2,-32,1050,-140,490,910,378,19,-126
13:20:13.079,,0,-31,1043,210,560,770,378,25,-127
13:20:13.098,,0,-32,1041,-140,280,840,369,25,-126
13:20:13.117,,0,-33,1042,-560,-140,1050,373,25,-124
13:20:13.135,,3,-30,1040,-700,-630,980,376,27,-121
13:20:13.154,,3,-27,1038,-700,-980,700,379,27,-123
13:20:13.173,,3,-25,1039,-770,-1260,350,378,28,-129
13:20:13.192,,3,-25,1039,-770,-1260,350,379,28,-123
13:20:13.211,,4,-23,1038,-1120,-1540,70,385,30,-127
13:20:13.229,,6,-21,1040,-1540,-1750,-140,387,27,-126
13:20:13.248,,4,-19,1044,-2030,-1890,-280,375,22,-115
13:20:13.267,,4,-24,1047,-2310,-2240,-630,382,24,-124
13:20:13.286,,5,-23,1049,-1750,-2730,-1120,381,30,-133
13:20:13.305,,7,-25,1055,-1540,-3080,-1330,381,31,-121
13:20:13.323,,8,-32,1062,-1680,-3290,-1400,370,25,-127
13:20:13.342,,7,-32,1062,-1400,-3360,-1330,388,21,-120
13:20:13.361,,8,-32,1068,-910,-3360,-1330,379,31,-127
13:20:13.380,,11,-30,1070,-700,-3010,-1330,382,22,-126
13:20:13.398,,14,-33,1068,-980,-2310,-1260,378,22,-132
13:20:13.417,,16,-36,1067,-980,-1400,-1190,379,27,-126
13:20:13.436,,12,-37,1062,-1190,-630,-980,378,25,-121
13:20:13.455,,10,-40,1059,-1260,-350,-560,376,25,-120
13:20:13.474,,8,-35,1055,-840,-420,-280,381,22,-120
13:20:13.493,,10,-31,1051,-420,-700,-280,375,25,-126
13:20:13.511,,12,-30,1052,-140,-770,-420,378,24,-126
13:20:13.530,,11,-29,1049,-280,-700,-700,381,27,-120
13:20:13.549,,11,-33,1046,-840,-700,-840,382,25,-120
13:20:13.568,,12,-38,1048,-1190,-910,-770,373,22,-129
13:20:13.586,,13,-38,1048,-1120,-1050,-770,378,21,-126
13:20:13.605,,14,-37,1049,-1190,-1050,-770,378,19,-124
13:20:13.624,,12,-38,1053,-1470,-840,-490,381,19,-127
13:20:13.643,,9,-37,1054,-1610,-770,-420,369,18,-118
13:20:13.662,,7,-35,1056,-1680,-770,-420,378,22,-114
13:20:13.680,,7,-35,1056,-1610,-1050,-490,382,24,-117
13:20:13.699,,7,-33,1055,-1120,-1260,-700,382,27,-115
13:20:13.718,,9,-33,1057,-910,-1400,-910,379,24,-120
13:20:13.737,,11,-38,1059,-1050,-1190,-980,378,28,-123
13:20:13.756,,12,-39,1059,-1120,-910,-980,381,22,-120
13:20:13.774,,12,-40,1058,-1260,-630,-840,378,27,-123
13:20:13.793,,11,-40,1054,-1330,-490,-630,373,22,-123
13:20:13.812,,11,-36,1056,-1190,-560,-490,378,30,-121
13:20:13.831,,9,-35,1055,-980,-560,-490,376,27,-124
13:20:13.850,,7,-36,1056,-700,-700,-630,379,19,-121
13:20:13.868,,7,-37,1055,-420,-980,-770,373,25,-126
13:20:13.887,,9,-38,1056,-140,-1190,-910,370,25,-126
13:20:13.906,,10,-38,1056,-280,-980,-910,379,25,-124
13:20:13.925,,8,-41,1055,-420,-910,-770,373,25,-114
13:20:13.944,,10,-42,1057,-280,-980,-770,381,25,-118
13:20:13.962,,10,-40,1057,70,-1120,-630,370,27,-124
13:20:13.981,,10,-39,1059,140,-1050,-490,381,27,-121
13:20:14.000,,12,-39,1056,-70,-700,-350,388,21,-120
13:20:14.019,,14,-38,1054,-140,-280,-350,378,24,-112
13:20:14.038,,14,-38,1054,-420,210,-350,376,19,-118
13:20:14.056,,13,-43,1051,-840,490,-420,376,19,-118
13:20:14.075,,14,-41,1048,-770,420,-280,375,21,-121
13:20:14.094,,13,-39,1049,-630,210,-70,381,19,-121
13:20:14.113,,12,-41,1050,-770,-210,70,375,21,-123
13:20:14.132,,10,-39,1048,-350,-770,0,373,27,-121
13:20:14.150,,12,-36,1048,70,-1190,-70,373,21,-126
13:20:14.169,,13,-36,1050,70,-1330,-210,375,25,-124
13:20:14.188,,11,-37,1049,-70,-1260,-280,376,27,-115
13:20:14.207,,9,-38,1049,-350,-1260,-280,375,24,-123
13:20:14.226,,9,-41,1049,-560,-1260,-280,376,19,-117
13:20:14.244,,9,-41,1053,-630,-1260,-140,378,18,-117
13:20:14.263,,9,-43,1055,-980,-1120,0,396,25,-120
13:20:14.282,,6,-43,1056,-980,-910,210,375,21,-120
13:20:14.301,,6,-42,1057,-1050,-840,420,379,22,-124
13:20:14.320,,5,-44,1057,-1120,-910,700,384,19,-121
13:20:14.338,,8,-45,1062,-910,-980,840,376,30,-123
13:20:14.357,,9,-43,1061,-490,-840,980,375,25,-121
13:20:14.376,,14,-43,1061,-140,-560,1120,373,25,-117
13:20:14.393,>gest5_cross_left,,,,,,,,,
13:20:14.395,,14,-43,1059,-210,-70,1330,382,27,-121
13:20:14.414,,14,-45,1052,-630,280,1470,387,25,-124
13:20:14.432,,10,-49,1048,-1120,350,1750,384,31,-121
13:20:14.451,,9,-56,1046,-1120,0,2100,382,30,-115
13:20:14.470,,9,-56,1043,-700,-630,2450,375,30,-111
13:20:14.489,,11,-55,1041,-350,-1260,2800,376,24,-117
13:20:14.508,,10,-50,1040,-140,-1820,3220,379,21,-132
13:20:14.526,,9,-45,1037,-490,-2030,3360,382,27,-115
13:20:14.545,,7,-44,1032,-1190,-2450,3430,372,33,-117
13:20:14.564,,6,-44,1032,-1260,-3010,3500,375,28,-123
13:20:14.583,,9,-39,1031,-980,-3780,3360,381,27,-123
13:20:14.602,,14,-35,1039,-840,-4340,3080,382,24,-114
13:20:14.620,,16,-33,1044,-1400,-4620,2730,375,22,-123
13:20:14.639,,18,-37,1045,-1960,-4830,2450,388,28,-123
13:20:14.658,,17,-37,1050,-2240,-4900,2520,376,28,-124
13:20:14.677,,21,-47,1058,-2450,-5320,2450,379,25,-114
13:20:14.696,,23,-46,1065,-1680,-5600,2380,372,36,-123
13:20:14.714,,21,-44,1076,-1190,-5670,2590,379,31,-114
13:20:14.733,,9,-55,1089,-1260,-5530,2940,381,34,-115
13:20:14.752,,-6,-62,1117,0,-5950,3920,381,36,-121
13:20:14.771,,-24,-71,1151,1820,-7210,5600,375,28,-117
13:20:14.790,,-40,-81,1211,3570,-8680,8680,378,34,-121
13:20:14.808,,-44,-81,1308,3570,-9590,13860,381,28,-123
13:20:14.827,,-26,-111,1415,3080,-8750,20440,381,37,-115
13:20:14.846,,-8,-143,1505,6930,-6790,28000,382,28,-126
13:20:14.865,,12,-136,1644,17150,-2940,35350,376,45,-118
13:20:14.883,,32,-101,1780,33180,6230,42420,376,45,-121
13:20:14.902,,29,-9,1872,49280,19880,47740,381,40,-135
13:20:14.921,,53,64,1938,56840,37030,50540,369,48,-127
13:20:14.940,,88,84,1919,56770,58450,52080,375,55,-135
13:20:14.959,,105,37,1828,54600,82740,51870,372,63,-136
13:20:14.977,,105,37,1659,58240,106610,49840,358,67,-144
13:20:14.996,,132,-59,1659,58240,106610,49840,367,81,-148
13:20:15.015,,106,-100,1518,72100,128030,48440,372,88,-154
13:20:15.034,,79,-120,1325,89600,144130,46060,355,102,-163
13:20:15.053,,62,-67,1111,102830,156870,40880,352,111,-171
13:20:15.071,,76,-9,909,105700,166670,36120,352,111,-171
13:20:15.090,,69,-15,674,99050,173880,32340,333,123,-171
13:20:15.109,,45,-26,448,93170,177030,28280,331,133,-174
13:20:15.128,,-5,30,314,91210,173460,24640,334,148,-171
13:20:15.147,,-38,106,202,83720,158410,21490,328,160,-174
13:20:15.165,,-89,150,57,69440,133140,21840,321,156,-160
13:20:15.184,,-120,207,-47,58380,103950,22470,319,162,-169
13:20:15.203,,-155,310,-74,49770,74270,19880,319,165,-166
13:20:15.222,,-157,401,-60,41580,46900,14350,315,172,-162
13:20:15.241,,-180,495,-25,30870,23590,6370,316,169,-181
13:20:15.259,,-235,536,12,16240,3710,-3850,316,181,-169
13:20:15.278,,-290,533,81,2940,-15820,-14280,306,172,-177
13:20:15.297,,-284,522,158,-5740,-36260,-24710,319,174,-172
13:20:15.316,,-261,519,238,-10850,-55370,-36330,315,162,-184
13:20:15.335,,-231,524,326,-15960,-71750,-48230,321,154,-178
13:20:15.353,,-197,531,404,-23030,-84840,-59710,322,144,-180
13:20:15.372,,-163,509,450,-33040,-94360,-71260,331,129,-180
13:20:15.391,,-142,448,464,-43260,-101010,-83300,334,117,-177
13:20:15.410,,-119,374,476,-51170,-106330,-94430,340,97,-187
13:20:15.429,,-101,305,508,-59990,-112840,-103950,348,100,-172
13:20:15.447,,-110,242,547,-71260,-121520,-111720,355,85,-180
13:20:15.466,,-147,164,647,-83090,-134610,-118230,355,67,-160
13:20:15.485,,-164,63,784,-85750,-151270,-122990,367,45,-165
13:20:15.504,,-125,-29,893,-74620,-166460,-127330,370,27,-156
13:20:15.523,,-82,-52,1007,-55160,-176680,-131950,364,10,-150
13:20:15.541,,-50,-22,1188,-36890,-182140,-132860,364,-12,-147
13:20:15.560,,0,-11,1356,-28210,-183610,-128450,366,-24,-145
13:20:15.579,,79,-20,1478,-35140,-178710,-122780,366,-40,-133
13:20:15.598,,186,-164,1616,-52850,-167370,-117320,364,-52,-121
13:20:15.617,,263,-384,1749,-59290,-149380,-109620,364,-67,-117
13:20:15.635,,305,-482,1871,-46200,-128590,-97090,363,-72,-112
13:20:15.654,,350,-524,1988,-32760,-104930,-79450,352,-88,-105
13:20:15.673,,357,-570,1998,-29540,-77490,-56840,358,-87,-97
13:20:15.692,,310,-581,1998,-24360,-46340,-32550,355,-87,-100
13:20:15.711,,255,-480,1998,-8260,-16310,-12600,354,-97,-100
13:20:15.729,,175,-279,1968,10990,11340,1260,355,-90,-100
13:20:15.748,,122,-126,1921,23800,35070,8890,348,-96,-115
13:20:15.767,,137,-8,1883,35350,55160,10780,357,-76,-112
13:20:15.786,,177,65,1810,44450,73360,7700,343,-78,-121
13:20:15.805,,185,75,1782,48440,90790,4550,348,-81,-127
13:20:15.823,,162,7,1746,47670,107310,4690,348,-85,-139
13:20:15.842,,140,-50,1674,49420,121800,7560,349,-76,-150
13:20:15.861,,121,-87,1549,52220,135030,11060,340,-64,-160
13:20:15.880,,105,-137,1413,51660,146930,14700,343,-61,-177
13:20:15.899,,61,-180,1295,53690,156940,19180,343,-51,-174
13:20:15.917,,12,-175,1154,59360,164080,22960,334,-39,-180
13:20:15.936,,-3,-146,989,63070,168140,25130,336,-31,-195
13:20:15.955,,-33,-106,806,61320,171640,27020,331,-25,-195
13:20:15.974,,-64,-74,651,51100,173530,29750,331,-13,-198
13:20:15.993,,-117,-49,539,34930,171920,34720,339,6,-202
13:20:16.011,,-148,-75,446,21980,163660,41160,334,19,-214
13:20:16.030,,-196,-51,358,20720,152180,46970,328,34,-214
13:20:16.049,,-231,28,270,23800,138530,47810,336,43,-219
13:20:16.068,,-266,117,170,21420,124040,47110,330,55,-217
13:20:16.087,,-296,157,101,13580,108290,46270,334,61,-216
13:20:16.105,,-338,185,64,3780,91840,45710,331,78,-214
13:20:16.124,,-359,220,54,-4690,73780,44590,331,78,-214
13:20:16.143,,-388,279,68,-10920,53620,44800,330,88,-214
13:20:16.162,,-415,288,89,-16660,32480,45290,322,90,-213
13:20:16.181,,-442,303,104,-20720,12250,42280,334,91,-202
13:20:16.199,,-483,335,152,-25200,-7210,37520,333,94,-199
13:20:16.218,,-488,343,191,-34090,-26600,32900,333,94,-207
13:20:16.237,,-452,283,164,-48510,-43960,28070,343,96,-183
13:20:16.256,,-411,227,182,-62860,-59850,23170,340,91,-189
13:20:16.275,,-401,205,288,-78050,-77210,22190,340,96,-193
13:20:16.293,,-376,172,379,-92750,-95340,23380,352,84,-184
13:20:16.312,,-348,136,456,-104930,-110810,20510,343,87,-181
13:20:16.331,,-342,93,504,-110460,-122080,12950,355,72,-171
13:20:16.350,,-335,72,595,-109410,-130830,5670,354,70,-160
13:20:16.369,,-303,68,782,-109620,-140490,0,358,69,-160
13:20:16.387,,-249,-50,971,-110040,-149240,-3430,369,52,-159
13:20:16.406,,-171,-172,1115,-99400,-154840,-7350,360,52,-151
13:20:16.425,,-104,-211,1207,-80080,-154840,-9940,376,45,-135
13:20:16.444,,-47,-185,1283,-66150,-149870,-8890,370,39,-133
13:20:16.463,,13,-203,1435,-63910,-143220,-420,376,33,-132
13:20:16.481,,62,-266,1546,-68040,-135590,10850,384,31,-129
13:20:16.500,,121,-287,1608,-64470,-126140,18200,391,34,-117
13:20:16.519,,173,-256,1674,-49700,-113260,22330,381,28,-109
13:20:16.538,,208,-150,1735,-31850,-96740,25760,387,31,-115
13:20:16.557,,254,-18,1758,-20650,-76440,28070,381,37,-102
13:20:16.575,,275,72,1723,-18340,-53130,28630,376,42,-108
13:20:16.594,,259,120,1651,-21280,-28630,26390,384,45,-99
13:20:16.613,,224,86,1555,-25200,-8330,21840,381,40,-102
13:20:16.632,,198,17,1440,-20510,4270,15750,388,43,-99
13:20:16.651,,175,8,1341,-7000,11410,9030,390,43,-91
13:20:16.669,,150,15,1249,2450,14910,3640,384,43,-100
13:20:16.688,,136,-15,1163,3850,15750,490,388,43,-102
13:20:16.707,,114,-69,1092,3990,15750,-630,390,48,-97
13:20:16.726,,96,-110,1042,8120,13790,-1330,391,46,-97
13:20:16.745,,78,-107,1013,14210,11550,-2100,385,45,-103
13:20:16.763,,57,-91,981,16170,9450,-2030,388,42,-102
13:20:16.782,,57,-91,981,13930,7770,-1610,376,40,-103
13:20:16.801,,43,-90,958,13930,7770,-1610,379,48,-103
13:20:16.820,,33,-91,951,11480,6860,-1750,390,49,-103
13:20:16.839,,22,-91,950,8890,6510,-2380,387,43,-105
13:20:16.857,,15,-91,954,5880,5600,-2800,388,45,-100
13:20:16.876,,10,-92,963,2660,4340,-2660,390,49,-103
13:20:16.895,,8,-103,970,560,2380,-2590,384,45,-108
13:20:16.914,,12,-103,986,630,140,-2660,381,39,-105
13:20:16.933,,12,-92,998,420,-1680,-2590,387,43,-106
13:20:16.951,,15,-92,1014,-1470,-3570,-2310,388,45,-105
13:20:16.970,,16,-87,1033,-3290,-4760,-1610,384,40,-106
13:20:16.989,,22,-86,1049,-4900,-5390,-700,387,40,-105
13:20:17.008,,31,-93,1065,-5320,-5180,-210,379,46,-103
13:20:17.027,,37,-99,1083,-4130,-4060,-350,378,39,-108
13:20:17.045,,39,-95,1092,-2520,-2520,-840,388,48,-111
13:20:17.064,,37,-94,1089,-1890,-980,-1050,388,43,-106
13:20:17.083,,37,-90,1089,-1750,280,-420,387,37,-106
13:20:17.102,,35,-95,1085,-1470,1260,420,381,48,-105
13:20:17.121,,34,-90,1084,140,2030,770,388,43,-105
13:20:17.139,,30,-86,1082,1260,2660,630,382,43,-105
13:20:17.158,,29,-87,1072,1400,3010,70,382,43,-105
13:20:17.177,,29,-90,1059,1400,3290,-280,390,48,-100
13:20:17.196,,30,-92,1052,1610,3570,-350,388,39,-99
13:20:17.215,,28,-94,1046,980,3990,-350,390,43,-102
13:20:17.233,,26,-99,1042,140,3850,-630,384,46,-106
13:20:17.252,,22,-97,1037,-70,3780,-980,396,49,-106
13:20:17.271,,20,-97,1030,-980,3640,-1190,385,40,-94
13:20:17.290,,19,-99,1025,-3010,3710,-1190,393,46,-99
13:20:17.309,,14,-119,1024,-5040,3500,-1050,393,42,-103
13:20:17.327,,14,-136,1030,-3990,2660,-980,387,46,-102
13:20:17.346,,13,-126,1033,-910,1540,-840,382,48,-103
13:20:17.365,,17,-109,1038,70,840,-280,388,48,-99
13:20:17.384,,17,-107,1040,-1260,420,350,387,45,-100
13:20:17.403,,16,-108,1045,-1890,140,770,382,45,-103
13:20:17.421,,14,-102,1045,-1540,-70,840,394,46,-102
13:20:17.440,,15,-103,1044,-1050,-490,840,388,42,-103
13:20:17.459,,17,-97,1049,70,-560,980,387,49,-105
13:20:17.478,,17,-87,1052,-140,-350,840,391,49,-103
13:20:17.497,,20,-91,1053,-1260,-420,910,385,49,-103
13:20:17.516,,20,-90,1055,-1400,-420,700,384,45,-109
13:20:17.534,,24,-88,1056,-1120,-420,280,379,48,-105
13:20:17.553,,20,-81,1051,-1540,-140,-210,382,43,-103
13:20:17.572,,18,-86,1048,-3220,0,-630,381,39,-108
13:20:17.591,,17,-101,1049,-4270,-140,-700,394,49,-100
13:20:17.610,,13,-107,1044,-3640,-490,-700,381,43,-106
13:20:17.628,,11,-113,1049,-1680,-1120,-630,387,40,-108
13:20:17.647,,13,-104,1052,630,-1680,-770,381,45,-103
13:20:17.666,,15,-96,1049,910,-1610,-840,384,42,-103
13:20:17.685,,16,-101,1047,-350,-1260,-840,391,46,-111
13:20:17.704,,16,-107,1044,-1120,-700,-910,381,49,-108
13:20:17.722,,14,-109,1044,-1540,-350,-840,388,45,-105
13:20:17.741,,13,-116,1041,-1750,-490,-770,372,52,-99
13:20:17.760,,16,-111,1044,-420,-770,-630,387,42,-102
13:20:17.779,,14,-102,1045,140,-840,-630,387,45,-108
13:20:17.798,,14,-104,1042,-490,-980,-560,388,42,-100
13:20:17.816,,14,-104,1047,-770,-910,-630,387,49,-106
13:20:17.835,,17,-101,1047,-1120,-910,-700,379,45,-99
13:20:17.854,,19,-102,1047,-1680,-910,-770,391,43,-96
13:20:17.873,,21,-107,1051,-2310,-980,-840,384,45,-99
13:20:17.892,,19,-113,1047,-2660,-1400,-910,385,45,-105
13:20:17.910,,22,-117,1048,-1890,-1820,-840,388,48,-97
13:20:17.929,,26,-110,1059,-490,-1610,-630,381,40,-112
13:20:17.948,,29,-102,1062,-280,-980,-560,381,52,-99
13:20:17.967,,26,-103,1058,-910,-140,-560,388,42,-99
13:20:17.986,,23,-103,1057,-1120,560,-770,390,43,-100
13:20:18.004,,19,-104,1052,-980,980,-910,381,52,-99
13:20:18.023,,17,-108,1054,-560,980,-980,382,46,-100
13:20:18.042,,14,-110,1054,-140,700,-1050,387,46,-100
13:20:18.061,,13,-108,1044,280,280,-1050,385,45,-106
13:20:18.080,,15,-106,1046,560,70,-1050,390,40,-105
13:20:18.098,,15,-106,1041,350,70,-1050,382,45,-105
13:20:18.117,,12,-108,1040,280,140,-1120,385,46,-102
13:20:18.136,,8,-109,1043,210,0,-1260,382,43,-108
13:20:18.155,,7,-113,1044,70,-350,-1330,382,36,-109
13:20:18.174,,9,-116,1045,140,-560,-1260,382,36,-109
13:20:18.192,,11,-113,1045,420,-560,-1190,385,36,-99
13:20:18.211,,13,-112,1047,420,-280,-910,388,45,-106
13:20:18.230,,11,-108,1048,-70,140,-490,382,37,-106
13:20:18.249,,8,-110,1048,-770,280,-140,381,36,-99
13:20:18.268,,12,-111,1048,-350,70,-70,382,46,-99
13:20:18.286,,11,-103,1048,280,70,-140,378,39,-103
13:20:18.305,,16,-104,1049,70,210,-140,387,46,-105
13:20:18.324,,19,-103,1054,0,490,-140,387,48,-109
13:20:18.341,<gest5_cross_left,,,,,,,,,
13:20:18.343,,20,-100,1054,-70,770,-280,384,46,-103
13:20:18.362,,22,-101,1051,70,1050,-560,385,46,-102
13:20:18.380,,18,-99,1045,-70,1260,-910,388,49,-97
13:20:18.399,,18,-104,1042,-350,1190,-980,390,42,-102
13:20:18.418,,13,-102,1042,-140,1120,-1050,387,55,-94
13:20:18.437,,8,-102,1036,-210,910,-1260,391,48,-105
13:20:18.456,,5,-107,1036,-140,350,-1540,379,49,-105
13:20:18.474,,7,-106,1040,560,-560,-1890,391,46,-97
13:20:18.493,,6,-99,1039,770,-1050,-1890,388,42,-102
13:20:18.512,,7,-102,1041,70,-1330,-1890,381,46,-103
13:20:18.531,,7,-105,1043,-280,-1260,-1960,387,43,-103
13:20:18.550,,7,-108,1047,-350,-1190,-2100,379,43,-99
13:20:18.568,,8,-116,1050,-210,-1330,-2100,385,43,-100
13:20:18.587,,8,-116,1050,-210,-1330,-2100,394,45,-102
13:20:18.606,,9,-114,1050,420,-1260,-1820,390,45,-102
13:20:18.625,,7,-107,1049,70,-980,-1470,391,39,-109
13:20:18.644,,7,-114,1045,-1050,-770,-1050,385,37,-96
13:20:18.662,,8,-114,1048,-910,-490,-700,381,43,-105
13:20:18.681,,8,-109,1048,-630,-420,-490,387,40,-111
13:20:18.700,,7,-110,1044,-770,-490,-280,391,42,-103
13:20:18.719,,6,-110,1044,-560,-770,-210,381,48,-105
13:20:18.738,,7,-105,1047,-350,-910,-70,388,43,-99
13:20:18.756,,7,-102,1048,-630,-1050,140,385,43,-103
13:20:18.775,,10,-104,1049,-490,-1050,0,382,40,-103
13:20:18.794,,11,-98,1050,-210,-840,-210,388,43,-108
13:20:18.813,,13,-101,1051,-910,-560,-350,384,42,-103
13:20:18.832,,11,-108,1054,-1400,-350,-210,379,40,-100
13:20:18.850,,10,-106,1056,-1120,-350,-210,379,48,-106
13:20:18.869,,11,-105,1054,-630,-560,-210,381,40,-97
13:20:18.888,,11,-101,1052,-210,-420,-280,385,45,-111
13:20:18.907,,11,-103,1055,-420,-210,-420,391,42,-102
13:20:18.926,,8,-105,1053,-630,0,-350,381,42,-102
13:20:18.944,,7,-105,1053,-350,-210,-350,382,40,-97
13:20:18.963,,8,-106,1051,280,-490,-350,387,46,-103
13:20:18.982,,10,-102,1052,1050,-560,-420,382,46,-106
13:20:19.001,,10,-101,1054,910,-280,-490,387,46,-103
13:20:19.020,,10,-105,1050,70,140,-560,385,46,-100
13:20:19.038,,7,-107,1047,-210,560,-420,387,52,-93
13:20:19.057,,5,-107,1044,-490,700,-490,388,43,-102
13:20:19.076,,5,-108,1040,-490,490,-630,384,39,-108
13:20:19.095,,8,-108,1040,-490,280,-770,384,43,-99
13:20:19.114,,6,-109,1036,-770,140,-560,382,46,-102
13:20:19.132,,3,-112,1036,-770,-210,-420,388,46,-102
13:20:19.151,,3,-108,1040,-420,-700,-140,390,43,-105
13:20:19.170,,4,-103,1038,-700,-1330,0,387,57,-93
13:20:19.189,,8,-104,1041,-1050,-1750,70,387,57,-93
13:20:19.208,,12,-102,1047,-980,-1820,-210,385,43,-100
13:20:19.226,,12,-102,1053,-1190,-1750,-280,390,45,-100
13:20:19.245,,11,-102,1054,-1330,-1680,-350,390,46,-100
13:20:19.264,,11,-104,1057,-1120,-1680,-490,391,45,-102
13:20:19.283,,12,-106,1057,-910,-1540,-700,390,40,-102
13:20:19.302,,11,-107,1057,-910,-1260,-840,379,34,-103
13:20:19.320,,12,-113,1055,-630,-1120,-840,379,42,-102
13:20:19.339,,12,-110,1056,-140,-770,-770,390,42,-106
13:20:19.358,,11,-108,1053,-70,-700,-700,387,45,-102
13:20:19.377,,7,-106,1050,-140,-560,-560,384,51,-100
13:20:19.396,,6,-108,1051,-70,-700,-560,388,40,-100
13:20:19.414,,7,-106,1050,420,-1050,-630,381,45,-105
13:20:19.433,,10,-108,1049,980,-1400,-840,381,42,-106
13:20:19.452,,12,-100,1049,1120,-1120,-980,387,40,-105
13:20:19.471,,12,-102,1047,140,-700,-840,382,45,-100
13:20:19.490,,10,-108,1047,-560,-350,-700,376,46,-99
13:20:19.508,,8,-106,1048,-420,-280,-770,384,49,-99
13:20:19.527,,8,-106,1047,-420,-560,-840,387,40,-102
13:20:19.546,,9,-111,1047,-420,-770,-840,379,45,-93
13:20:19.565,,10,-108,1047,70,-980,-700,381,42,-102
13:20:19.584,,11,-103,1050,0,-910,-560,387,48,-103
13:20:19.602,,11,-106,1049,-630,-770,-350,387,42,-108
13:20:19.621,,8,-105,1051,-700,-630,-350,387,36,-102
13:20:19.640,,6,-105,1051,-630,-560,-280,382,42,-103
13:20:19.659,,4,-106,1050,-560,-560,-210,391,39,-103
13:20:19.678,,8,-107,1052,140,-700,-350,385,48,-102
13:20:19.696,,12,-104,1053,560,-490,-630,379,46,-103
13:20:19.715,,12,-104,1053,0,-140,-560,390,45,-105
13:20:19.734,,10,-108,1049,-700,140,-350,384,48,-102
