Sensors' Acquisition [Hz]: Acc@52.0 Gyro@52.0 Mag@52.0 
hh:mm:ss.ms, Annotation , AccX [mg], AccY, AccZ, GyroX [mdps], GyroY, GyroZ, MagX [mgauss], MagY, MagZ
00:00:19.666,,-291,-483,908,-16170,-41720,-54180,381,-561,-364
00:00:19.684,,-291,-483,908,-72240,-214760,-223930,375,-555,-363
00:00:19.703,,-280,-464,921,-72240,-214760,-223930,378,-555,-372
00:00:19.721,,-282,-452,912,11480,-20160,-10360,379,-543,-369
00:00:19.740,,-296,-456,889,6230,8120,1610,379,-541,-367
00:00:19.758,,-287,-462,896,1960,10150,0,376,-546,-369
00:00:19.777,,-310,-488,877,-2520,14280,-1260,363,-538,-373
00:00:19.795,,-319,-501,860,-4130,16590,-1540,363,-535,-369
00:00:19.814,,-324,-501,856,-2660,18340,-1540,373,-538,-360
00:00:19.832,,-322,-496,835,-1750,18900,-770,370,-535,-358
00:00:19.851,,-335,-483,819,-840,17920,1330,369,-532,-363
00:00:19.869,,-344,-474,814,-70,16100,3010,355,-534,-361
00:00:19.888,,-354,-470,814,210,13510,3150,361,-540,-358
00:00:19.906,,-371,-462,799,-210,11060,1960,361,-540,-358
00:00:19.925,,-395,-465,794,-840,8400,490,369,-534,-345
00:00:19.943,,-373,-465,809,-1540,5670,-910,363,-541,-343
00:00:19.962,,-392,-472,794,-2100,4970,-1960,366,-532,-345
00:00:19.980,,-378,-456,816,-1750,3010,-2520,361,-537,-351
00:00:19.999,,-382,-482,823,-3080,1750,-2590,361,-529,-343
00:00:20.017,,-357,-472,820,-3360,490,-3150,366,-529,-351
00:00:20.036,,-363,-493,816,-3360,-350,-3430,372,-522,-361
00:00:20.054,,-372,-491,842,-2170,-2590,-3780,372,-535,-349
00:00:20.073,,-354,-491,859,-910,-4830,-3150,367,-529,-355
00:00:20.091,,-366,-495,855,490,-5390,-2730,366,-540,-363
00:00:20.110,,-347,-496,869,1400,-5250,-2940,358,-537,-357
00:00:20.128,,-355,-497,869,1050,-3990,-3220,367,-538,-363
00:00:20.147,,-356,-485,892,2170,-3850,-3010,360,-532,-355
00:00:20.165,,-346,-485,892,3080,-4340,-2030,354,-535,-346
00:00:20.184,,-360,-476,872,2450,-3710,-2380,354,-537,-348
00:00:20.202,,-374,-481,889,2520,-4480,-3080,349,-544,-354
00:00:20.221,,-359,-479,905,2240,-5250,-3360,358,-543,-354
00:00:20.239,,-353,-484,874,1120,-4130,-3570,367,-549,-360
00:00:20.258,,-351,-481,866,630,-2520,-3850,381,-555,-367
00:00:20.276,,-362,-492,885,-350,-2240,-3430,375,-547,-378
00:00:20.295,,-342,-492,886,-1750,-3640,-2450,373,-546,-375
00:00:20.313,,-326,-493,865,-1610,-3710,-1680,372,-537,-385
00:00:20.332,,-363,-483,854,-140,-2590,-1260,367,-537,-375
00:00:20.350,,-365,-473,892,1470,-3640,-350,367,-537,-375
00:00:20.369,,-334,-467,889,1050,-5040,-210,364,-544,-367
00:00:20.387,,-344,-456,863,350,-4130,-1120,354,-540,-373
00:00:20.406,,-350,-449,902,1120,-4760,-1960,351,-544,-372
00:00:20.424,,-341,-455,918,140,-5040,-2660,358,-543,-376
00:00:20.443,,-321,-449,897,-700,-3360,-3920,364,-547,-370
00:00:20.461,,-329,-445,880,-1260,-350,-4690,369,-546,-373
00:00:20.480,,-340,-458,896,-2660,910,-5110,360,-541,-369
00:00:20.498,,-332,-462,901,-3290,-70,-4410,354,-544,-373
00:00:20.517,,-323,-474,882,-2240,-420,-3640,357,-540,-370
00:00:20.535,,-339,-478,874,-1120,70,-4060,358,-544,-363
00:00:20.554,,-344,-483,901,-1400,-560,-3920,358,-540,-352
00:00:20.572,,-345,-503,897,-2100,-980,-2870,363,-541,-346
00:00:20.591,,-328,-494,876,-980,-140,-1610,355,-547,-363
00:00:20.609,,-334,-489,870,-630,1610,-280,346,-543,-358
00:00:20.628,,-355,-490,871,-2380,1540,1400,355,-543,-358
00:00:20.646,,-345,-486,876,-3640,-140,2870,348,-540,-354
00:00:20.665,,-346,-490,864,-2590,-1400,4060,360,-540,-342
00:00:20.683,,-356,-472,861,-1890,-630,4340,340,-540,-357
00:00:20.702,,-349,-461,879,-3150,-1050,4200,348,-541,-351
00:00:20.720,,-331,-451,876,-4550,-1120,4060,360,-540,-349
00:00:20.739,,-353,-443,858,-3710,210,3430,366,-538,-351
00:00:20.757,,-342,-421,880,-2660,560,2730,349,-546,-337
00:00:20.776,,-360,-436,860,-4200,490,1610,349,-546,-337
00:00:20.794,,-353,-425,864,-3710,210,140,345,-547,-345
00:00:20.813,,-357,-448,857,-3220,350,-1190,331,-543,-339
00:00:20.831,,-357,-450,864,-3150,-350,-2730,339,-547,-337
00:00:20.850,,-348,-472,871,-3430,-1470,-3640,334,-541,-334
00:00:20.868,,-353,-478,867,-2310,-1680,-4340,345,-540,-331
00:00:20.887,,-339,-478,869,-2030,-630,-4130,345,-555,-336
00:00:20.905,,-359,-488,857,-2870,980,-2730,340,-544,-327
00:00:20.924,,-334,-469,871,-2870,1260,-1120,352,-537,-334
00:00:20.942,,-360,-482,851,-3360,1960,70,340,-540,-331
00:00:20.961,,-348,-461,872,-2520,770,350,349,-547,-324
00:00:20.979,,-361,-484,863,-2590,0,560,340,-555,-321
00:00:20.998,,-348,-463,862,-1330,-490,700,345,-547,-328
00:00:21.016,,-348,-463,862,-1330,-490,700,342,-550,-330
00:00:21.035,,-331,-454,852,-1400,350,1470,346,-549,-331
00:00:21.053,,-364,-449,843,-2240,1120,2030,340,-535,-340
00:00:21.072,,-359,-455,865,-3220,-280,2310,342,-535,-330
00:00:21.090,,-377,-454,856,-2730,-2170,2170,349,-529,-334
00:00:21.109,,-367,-450,871,-1400,-4340,1610,349,-526,-334
00:00:21.127,,-365,-453,867,-980,-5110,980,349,-525,-337
00:00:21.146,,-352,-444,879,-1190,-4620,420,345,-535,-330
00:00:21.164,,-355,-453,894,-1820,-3780,140,343,-526,-327
00:00:21.183,,-356,-451,908,-3010,-2940,-280,351,-529,-334
00:00:21.201,,-368,-469,898,-3640,-1610,-700,346,-540,-343
00:00:21.220,,-356,-464,903,-3150,-630,-1330,346,-540,-343
00:00:21.238,,-367,-467,884,-3500,350,-1540,360,-547,-348
00:00:21.257,,-371,-468,896,-3220,490,-1400,364,-538,-343
00:00:21.275,,-354,-474,887,-3850,630,-1890,366,-537,-349
00:00:21.294,,-367,-470,871,-3500,1820,-2940,363,-528,-349
00:00:21.312,,-390,-477,885,-3150,2520,-3080,364,-540,-361
00:00:21.331,,-373,-481,892,-3570,1400,-3080,369,-534,-357
00:00:21.349,,-361,-483,868,-3220,1330,-3080,349,-537,-342
00:00:21.368,,-374,-484,857,-2240,2450,-3150,358,-535,-343
00:00:21.386,,-382,-476,879,-2240,1750,-2800,357,-537,-334
00:00:21.405,,-368,-480,876,-3080,70,-1890,349,-534,-340
00:00:21.423,,-367,-474,867,-1680,-840,-1890,339,-531,-345
00:00:21.442,,-374,-465,867,-840,-350,-2310,351,-538,-331
00:00:21.460,,-381,-460,877,-1890,-1190,-2800,357,-529,-333
00:00:21.479,,-380,-470,874,-2660,-2240,-2940,346,-537,-331
00:00:21.497,,-373,-472,871,-2380,-2730,-3360,340,-544,-324
00:00:21.516,,-376,-474,861,-3150,-1890,-3430,337,-537,-330
00:00:21.534,,-369,-472,884,-3290,-2870,-3080,351,-546,-336
00:00:21.553,,-385,-485,899,-2730,-4270,-2310,357,-540,-331
00:00:21.571,,-353,-476,902,-1960,-5040,-2940,352,-532,-333
00:00:21.590,,-367,-482,882,-2310,-2380,-3640,355,-534,-336
00:00:21.608,,-377,-486,892,-3570,210,-4060,355,-544,-339
00:00:21.627,,-361,-486,902,-4200,630,-3430,352,-535,-343
00:00:21.645,,-361,-487,874,-4340,1050,-2380,352,-535,-343
00:00:21.664,,-365,-485,855,-3850,2240,-2380,357,-538,-334
00:00:21.682,,-370,-471,856,-3570,2660,-2310,358,-532,-337
00:00:21.701,,-370,-478,857,-4130,1820,-1680,364,-541,-336
00:00:21.719,,-364,-474,857,-3710,560,-2100,361,-531,-343
00:00:21.738,,-384,-486,863,-2730,-490,-2730,360,-538,-336
00:00:21.756,,-369,-476,882,-2100,-1610,-2800,369,-534,-337
00:00:21.775,,-370,-491,863,-2380,-910,-2240,363,-538,-336
00:00:21.793,,-369,-478,874,-2240,-140,-1610,369,-522,-328
00:00:21.812,,-374,-489,873,-3010,210,-980,355,-529,-336
00:00:21.830,,-375,-485,858,-3430,210,-420,361,-528,-330
00:00:21.833,>gest2_circle_ccw,,,,,,,,,
00:00:21.849,,-374,-478,866,-2800,-420,0,358,-523,-328
00:00:21.867,,-388,-479,871,-2800,-1680,-140,376,-529,-325
00:00:21.886,,-366,-473,868,-2800,-2590,-490,375,-532,-340
00:00:21.904,,-381,-474,857,-2520,-1610,-700,369,-543,-343
00:00:21.923,,-365,-467,874,-2590,-1680,-700,372,-538,-336
00:00:21.941,,-365,-479,866,-3430,-1540,-910,372,-526,-346
00:00:21.960,,-375,-467,881,-1960,-2170,-1610,375,-531,-349
00:00:21.978,,-375,-478,880,-1540,-2800,-1960,378,-535,-345
00:00:21.997,,-366,-468,871,-1400,-2380,-2240,370,-529,-354
00:00:22.015,,-373,-473,879,-1050,-1540,-2030,369,-526,-351
00:00:22.034,,-376,-480,877,-1890,-1470,-1960,372,-523,-348
00:00:22.052,,-359,-472,876,-2450,-1960,-2240,369,-523,-354
00:00:22.071,,-379,-455,855,-3850,-840,-2100,370,-529,-352
00:00:22.089,,-377,-363,880,-16870,770,280,370,-529,-352
00:00:22.108,,-385,-352,853,-56140,3220,5110,366,-523,-348
00:00:22.126,,-402,-460,820,-100310,5110,9240,379,-523,-345
00:00:22.145,,-393,-598,812,-118020,3920,9100,376,-526,-327
00:00:22.163,,-390,-682,780,-101780,1820,5320,388,-514,-307
00:00:22.182,,-386,-714,757,-64330,210,1960,396,-511,-304
00:00:22.200,,-404,-672,752,-26810,-140,-770,388,-507,-304
00:00:22.219,,-389,-618,763,-5460,-2590,-2240,387,-520,-300
00:00:22.237,,-395,-596,769,-1610,-4550,-1820,393,-507,-298
00:00:22.256,,-386,-602,787,-4060,-7350,-700,399,-514,-289
00:00:22.274,,-367,-601,800,-5040,-8890,-560,397,-513,-294
00:00:22.293,,-366,-607,785,-3990,-8400,-420,384,-514,-295
00:00:22.311,,-364,-589,807,-630,-7210,140,385,-516,-307
00:00:22.330,,-370,-589,825,350,-6860,0,388,-517,-306
00:00:22.348,,-370,-587,825,350,-6860,0,403,-510,-312
00:00:22.367,,-363,-585,823,-420,-6790,-770,397,-508,-303
00:00:22.385,,-365,-574,807,-210,-4830,-1470,387,-505,-310
00:00:22.404,,-387,-577,795,70,-1890,-2170,385,-523,-312
00:00:22.422,,-387,-577,813,1190,-1400,-2870,375,-507,-310
00:00:22.441,,-369,-584,789,1610,-1610,-3920,381,-513,-313
00:00:22.459,,-385,-583,774,3710,-1400,-4340,387,-517,-300
00:00:22.478,,-375,-589,785,5250,-2380,-4480,376,-513,-301
00:00:22.496,,-388,-586,759,4900,-2660,-4410,381,-528,-310
00:00:22.515,,-386,-589,761,5530,-3850,-3570,381,-528,-310
00:00:22.533,,-379,-592,771,6510,-5600,-3290,393,-525,-324
00:00:22.552,,-371,-591,778,7280,-7350,-2870,408,-514,-336
00:00:22.570,,-365,-578,788,8190,-8400,-2380,418,-517,-339
00:00:22.589,,-366,-557,817,8680,-9450,-1960,400,-514,-336
00:00:22.607,,-332,-518,861,8680,-9660,-2590,393,-514,-336
00:00:22.626,,-354,-482,899,7630,-8260,-3850,385,-519,-345
00:00:22.644,,-321,-423,964,8540,-6720,-7210,373,-523,-339
00:00:22.663,,-280,-325,972,8470,-770,-12110,388,-523,-334
00:00:22.681,,-231,-257,919,-560,10150,-18270,391,-528,-325
00:00:22.700,,-244,-210,898,-20160,22050,-28000,378,-525,-318
00:00:22.718,,-278,-276,915,-49070,30660,-41720,379,-532,-312
00:00:22.737,,-306,-423,960,-76090,35630,-56420,384,-537,-288
00:00:22.755,,-335,-619,971,-85820,40670,-67270,391,-549,-268
00:00:22.774,,-335,-814,956,-74200,46690,-70770,400,-561,-258
00:00:22.792,,-332,-995,958,-53410,58590,-65730,390,-573,-255
00:00:22.811,,-315,-1178,1008,-43330,73850,-53690,391,-577,-253
00:00:22.829,,-328,-1308,986,-50400,88340,-36190,408,-583,-235
00:00:22.848,,-384,-1394,882,-63630,102340,-13370,408,-579,-219
00:00:22.866,,-458,-1397,704,-71330,114100,11970,415,-567,-208
00:00:22.885,,-527,-1308,536,-66710,122710,36330,414,-567,-198
00:00:22.903,,-590,-1179,439,-56980,124880,56910,403,-544,-190
00:00:22.922,,-636,-1055,370,-51310,115640,72940,402,-531,-181
00:00:22.940,,-647,-1000,276,-51170,96810,84560,399,-519,-166
00:00:22.959,,-663,-931,167,-52640,74970,93590,399,-519,-166
00:00:22.977,,-680,-866,76,-56210,54110,101220,403,-499,-154
00:00:22.996,,-703,-778,19,-62370,34860,107800,393,-478,-151
00:00:23.014,,-704,-754,4,-64190,15330,113750,375,-459,-138
00:00:23.033,,-674,-716,-40,-52920,-2870,116760,364,-445,-138
00:00:23.051,,-615,-627,-73,-30590,-17710,117670,354,-423,-132
00:00:23.070,,-578,-507,-49,-11760,-30940,117180,349,-420,-136
00:00:23.088,,-550,-387,-7,-4410,-45570,115080,340,-402,-136
00:00:23.107,,-539,-285,45,-7980,-59290,110320,333,-391,-138
00:00:23.125,,-518,-204,100,-18830,-73360,100870,315,-375,-142
00:00:23.144,,-490,-168,115,-29540,-85750,87920,297,-352,-150
00:00:23.162,,-462,-145,134,-33880,-94220,73290,301,-349,-157
00:00:23.181,,-442,-135,212,-31710,-101150,57820,295,-342,-160
00:00:23.199,,-419,-151,346,-25130,-109620,42070,289,-339,-174
00:00:23.218,,-409,-158,467,-20580,-116270,26460,282,-336,-187
00:00:23.236,,-378,-152,579,-20510,-121240,9940,280,-331,-196
00:00:23.255,,-338,-134,683,-28140,-122010,-6370,294,-330,-198
00:00:23.273,,-292,-152,721,-37940,-115780,-21280,282,-348,-202
00:00:23.292,,-289,-203,789,-42490,-102340,-33880,292,-331,-211
00:00:23.310,,-278,-271,914,-39130,-90160,-45850,300,-349,-222
00:00:23.329,,-270,-328,1000,-27650,-77770,-59010,300,-354,-228
00:00:23.347,,-269,-348,1049,-16870,-65100,-71820,310,-367,-234
00:00:23.366,,-257,-400,1052,-17990,-53200,-84210,322,-382,-223
00:00:23.384,,-285,-478,1004,-24500,-39760,-93940,322,-382,-223
00:00:23.403,,-322,-568,988,-23100,-25480,-99400,318,-399,-223
00:00:23.421,,-361,-593,1000,-10010,-12460,-103320,324,-414,-228
00:00:23.440,,-362,-586,996,3150,-2380,-107240,330,-427,-229
00:00:23.458,,-355,-573,957,6440,5250,-110390,340,-442,-228
00:00:23.477,,-358,-571,890,70,10990,-112560,364,-462,-226
00:00:23.495,,-385,-640,831,-7000,15400,-113120,370,-472,-229
00:00:23.514,,-427,-693,813,-7560,19880,-113540,372,-486,-225
00:00:23.532,,-413,-783,820,-2170,22890,-113470,372,-498,-217
00:00:23.551,,-379,-842,855,7000,25340,-111160,388,-511,-217
00:00:23.569,,-338,-930,861,13230,28280,-106330,381,-528,-213
00:00:23.588,,-345,-974,819,13860,33670,-98840,397,-543,-207
00:00:23.606,,-385,-1051,750,7000,41720,-88200,394,-540,-220
00:00:23.625,,-387,-1153,681,-2100,48580,-75390,387,-562,-214
00:00:23.643,,-388,-1203,640,-7490,54880,-59570,390,-562,-204
00:00:23.662,,-388,-1203,640,-7490,54880,-59570,394,-568,-205
00:00:23.680,,-425,-1205,587,-10640,60480,-40530,388,-579,-196
00:00:23.699,,-463,-1150,522,-13020,61250,-21420,382,-576,-189
00:00:23.717,,-489,-1080,473,-13090,57330,-4550,382,-577,-181
00:00:23.736,,-491,-993,476,-8890,48580,8120,381,-577,-192
00:00:23.754,,-471,-911,480,-630,38290,16100,388,-564,-192
00:00:23.773,,-444,-835,485,11200,28280,21420,382,-568,-190
00:00:23.791,,-409,-774,515,22050,20650,23730,393,-573,-189
00:00:23.810,,-385,-729,558,28770,15540,23170,393,-573,-189
00:00:23.828,,-365,-685,591,31780,11760,21000,393,-567,-207
00:00:23.847,,-373,-652,598,31080,10920,19250,397,-561,-228
00:00:23.865,,-377,-629,604,26460,11550,17640,400,-559,-225
00:00:23.884,,-389,-625,607,16590,13090,16030,399,-550,-232
00:00:23.902,,-394,-659,604,4480,13300,14560,403,-550,-228
00:00:23.921,,-400,-700,586,-3290,12600,12950,387,-555,-231
00:00:23.939,,-411,-735,576,-3220,10850,11900,372,-553,-231
00:00:23.958,,-415,-747,590,3220,7770,10780,381,-550,-229
00:00:23.976,,-415,-730,612,11550,4410,9590,379,-549,-226
00:00:23.995,,-423,-692,629,16660,1470,9170,370,-544,-225
00:00:24.013,,-434,-652,656,13930,140,9450,376,-547,-225
00:00:24.032,,-446,-646,680,4760,-840,9100,363,-547,-225
00:00:24.050,,-450,-661,689,-2730,-980,7910,367,-541,-229
00:00:24.069,,-460,-682,676,-3710,420,6650,373,-543,-222
00:00:24.087,,-449,-681,671,-490,1540,5530,378,-538,-216
00:00:24.106,,-434,-673,671,1330,3290,5670,375,-534,-223
00:00:24.124,,-429,-671,660,-840,5040,6300,379,-541,-220
00:00:24.143,,-434,-668,652,-5530,5460,6440,382,-532,-222
00:00:24.161,,-437,-671,635,-7980,4410,5250,384,-535,-216
00:00:24.180,,-441,-666,625,-6230,2240,3430,394,-531,-214
00:00:24.198,,-430,-665,685,-1400,-3080,490,387,-529,-217
00:00:24.217,,-388,-670,696,2730,-7350,-5250,378,-538,-223
00:00:24.235,,-389,-657,661,6510,-5740,-10430,375,-535,-226
00:00:24.254,,-420,-658,654,7840,-2030,-11970,375,-535,-226
00:00:24.272,,-427,-683,673,3920,1540,-12460,384,-534,-229
00:00:24.291,,-455,-718,666,-840,3990,-12040,384,-535,-222
00:00:24.309,,-458,-730,655,-2590,3290,-10080,388,-543,-226
00:00:24.328,,-448,-740,647,-2030,2240,-6860,379,-537,-225
00:00:24.346,,-449,-730,644,-560,1540,-3780,378,-537,-228
00:00:24.365,,-451,-705,651,-420,1190,-2380,382,-537,-225
00:00:24.383,,-457,-693,655,-1120,980,-1750,393,-534,-217
00:00:24.402,,-454,-676,659,-1610,700,-1470,393,-540,-213
00:00:24.420,,-454,-663,648,-2660,840,-980,367,-540,-214
00:00:24.439,,-465,-660,640,-4690,1120,-1470,381,-550,-214
00:00:24.457,,-470,-669,647,-5880,420,-1820,394,-555,-213
00:00:24.476,,-461,-681,654,-5530,-770,-2240,406,-543,-231
00:00:24.494,,-452,-689,653,-4340,-1680,-2240,403,-546,-229
00:00:24.513,,-440,-686,648,-3710,-1330,-1960,400,-532,-228
00:00:24.531,,-468,-701,660,-4340,-630,-1540,394,-532,-235
00:00:24.550,,-440,-715,678,-4480,-1120,-1330,406,-534,-241
00:00:24.568,,-435,-712,652,-3780,630,-490,396,-529,-228
00:00:24.587,,-441,-698,664,-3010,2590,770,408,-528,-229
00:00:24.605,,-468,-703,664,-3710,3360,1680,408,-519,-234
00:00:24.624,,-437,-689,668,-3570,3500,1960,403,-525,-238
00:00:24.642,,-447,-678,628,-3500,5390,2660,405,-522,-240
00:00:24.661,,-472,-666,642,-3500,6160,3430,412,-520,-238
00:00:24.679,,-489,-681,652,-4130,4270,3850,412,-520,-238
00:00:24.698,,-477,-670,666,-2380,1540,3430,409,-520,-231
00:00:24.716,,-462,-677,636,-1890,350,2730,397,-523,-238
00:00:24.735,,-473,-660,637,-2100,1050,1260,390,-529,-240
00:00:24.753,,-493,-670,649,-3150,1190,1260,379,-544,-238
00:00:24.772,,-483,-674,645,-3430,770,770,393,-528,-243
00:00:24.790,,-474,-655,639,-2450,700,280,393,-540,-235
00:00:24.809,,-505,-655,647,-2660,280,70,388,-529,-231
00:00:24.827,,-487,-655,660,-3710,-1820,-700,399,-534,-231
00:00:24.846,,-477,-672,648,-3710,-2590,-1330,390,-528,-231
00:00:24.864,,-456,-661,642,-3080,-1890,-2170,391,-523,-229
00:00:24.883,,-476,-671,634,-3850,-350,-3080,400,-537,-232
00:00:24.901,,-481,-673,650,-3850,-770,-2940,397,-526,-226
00:00:24.920,,-474,-683,644,-4130,-1680,-2520,394,-538,-226
00:00:24.938,,-480,-683,650,-3150,-2450,-2800,381,-534,-231
00:00:24.957,,-484,-685,656,-3290,-2590,-3290,367,-529,-225
00:00:24.975,,-492,-685,652,-3290,-2380,-3710,376,-534,-214
00:00:24.994,,-492,-695,652,-3290,-2380,-3710,384,-534,-217
00:00:25.012,,-459,-694,661,-2660,-2310,-3780,378,-528,-220
00:00:25.031,,-470,-697,644,-2940,-980,-3500,376,-532,-228
00:00:25.049,,-468,-696,643,-3710,-140,-3920,375,-525,-226
00:00:25.068,,-491,-698,641,-3290,210,-3500,390,-534,-223
00:00:25.087,,-489,-689,638,-2730,-420,-2170,394,-543,-222
00:00:25.105,,-457,-680,621,-3430,-840,-1050,406,-544,-234
00:00:25.124,,-479,-683,625,-3360,-910,-1330,406,-544,-234
00:00:25.142,,-475,-686,642,-2520,-2240,-1680,403,-541,-237
00:00:25.161,,-465,-673,647,-1470,-3080,-1610,394,-535,-240
00:00:25.179,,-450,-662,641,-1540,-3080,-1260,397,-535,-247
00:00:25.198,,-459,-661,641,-2520,-1540,-2310,411,-529,-246
00:00:25.216,,-474,-672,642,-3220,-70,-2800,400,-526,-238
00:00:25.235,,-458,-675,645,-2800,140,-2660,400,-529,-249
00:00:25.253,,-449,-677,635,-2380,420,-1890,390,-526,-249
00:00:25.272,,-469,-673,626,-2450,910,-2030,387,-529,-244
00:00:25.281,<gest2_circle_ccw,,,,,,,,,
00:00:25.290,,-502,-684,653,-2170,-350,-1820,388,-532,-240
00:00:25.309,,-447,-692,640,-2590,-1470,-1750,385,-528,-235
00:00:25.327,,-451,-682,617,-2240,560,-2030,370,-529,-229
00:00:25.346,,-481,-686,627,-3220,1470,-1890,370,-543,-222
00:00:25.364,,-485,-687,628,-4970,980,-2170,370,-541,-214
00:00:25.383,,-480,-688,613,-4970,560,-1330,379,-537,-225
00:00:25.401,,-479,-687,616,-3640,350,-560,399,-540,-214
00:00:25.420,,-490,-692,635,-2870,-630,-210,399,-538,-216
00:00:25.438,,-480,-688,655,-2240,-2450,-140,391,-534,-211
00:00:25.457,,-473,-697,640,-2240,-2800,-490,399,-534,-223
00:00:25.475,,-445,-678,639,-2240,-1190,-1050,394,-528,-223
00:00:25.494,,-477,-688,628,-3290,1400,-1260,399,-531,-217
00:00:25.512,,-488,-682,636,-3080,1890,-1330,391,-537,-220
00:00:25.531,,-487,-685,629,-2590,910,-700,397,-529,-217
00:00:25.549,,-474,-679,614,-2590,-210,-420,397,-529,-217
00:00:25.568,,-483,-680,614,-2520,-560,-770,385,-532,-225
00:00:25.586,,-497,-681,624,-2240,-1680,-980,385,-525,-219
00:00:25.605,,-479,-684,633,-1680,-3500,-630,388,-531,-211
00:00:25.623,,-459,-678,622,-1260,-3990,-280,385,-537,-208
00:00:25.642,,-485,-684,631,-1190,-3290,-840,375,-534,-205
00:00:25.660,,-482,-685,649,-1400,-3080,-1540,369,-531,-211
00:00:25.679,,-490,-685,631,-1820,-2590,-1190,378,-535,-208
00:00:25.697,,-487,-676,630,-1190,-2450,-560,379,-529,-210
00:00:25.716,,-491,-674,641,-1260,-3430,-280,381,-537,-211
00:00:25.734,,-481,-687,637,-2170,-4900,-770,382,-543,-210
00:00:25.753,,-495,-692,647,-1190,-5110,-1750,388,-541,-208
00:00:25.771,,-467,-685,658,-1050,-5250,-2030,375,-544,-213
00:00:25.790,,-476,-691,645,-2170,-3850,-2170,390,-541,-220
00:00:25.808,,-487,-688,673,-1610,-3150,-2520,385,-531,-210
00:00:25.827,,-474,-688,650,-2100,-2170,-2730,373,-532,-220
00:00:25.845,,-470,-671,642,-2240,-630,-2310,387,-531,-217
00:00:25.864,,-476,-672,652,-2590,0,-1820,384,-534,-213
00:00:25.882,,-479,-675,646,-2870,-490,-2100,391,-531,-211
00:00:25.901,,-475,-680,651,-2240,-1610,-2450,399,-526,-211
00:00:25.919,,-480,-689,632,-2520,-1260,-3010,393,-526,-217
00:00:25.938,,-472,-695,643,-3080,-420,-2870,388,-528,-217
00:00:25.956,,-462,-705,640,-3220,350,-2170,396,-526,-228
00:00:25.975,,-459,-684,622,-3010,1190,-1610,396,-526,-228
00:00:25.993,,-515,-695,628,-3080,1610,-1120,385,-532,-220
00:00:26.012,,-484,-693,647,-3010,-420,-1190,399,-525,-217
00:00:26.030,,-471,-690,612,-2730,-350,-840,393,-522,-222
00:00:26.049,,-483,-683,625,-2310,350,-490,385,-525,-222
00:00:26.067,,-486,-698,629,-3710,-70,-770,378,-520,-220
00:00:26.086,,-476,-699,622,-3640,-210,-1050,381,-535,-223
00:00:26.104,,-487,-692,617,-2240,350,-840,399,-520,-217
00:00:26.123,,-501,-689,627,-2520,-210,-630,393,-535,-217
00:00:26.141,,-475,-692,633,-3010,-1470,-280,384,-532,-217
00:00:26.160,,-493,-691,628,-2030,-1470,-350,385,-525,-219
00:00:26.178,,-475,-679,642,-1680,-1610,-700,384,-522,-217
00:00:26.197,,-461,-685,619,-3290,-210,-980,397,-517,-210
00:00:26.215,,-492,-679,622,-2590,1470,-980,397,-520,-204
00:00:26.234,,-493,-678,641,-2030,840,-140,403,-531,-205
00:00:26.252,,-459,-672,619,-2730,-70,280,412,-523,-210
00:00:26.271,,-501,-672,629,-1960,280,0,409,-520,-220
00:00:26.289,,-509,-674,648,-1680,-560,-980,411,-520,-211
