Sensors' Acquisition [Hz]: Acc@52.0 Gyro@52.0 Mag@52.0 
hh:mm:ss.ms, Annotation , AccX [mg], AccY, AccZ, GyroX [mdps], GyroY, GyroZ, MagX [mgauss], MagY, MagZ
19:09:39.372,,-357,-46,979,-1050,-1470,2310,171,-19,-270
19:09:39.391,,-356,-46,978,-350,-2310,2240,175,-16,-277
19:09:39.410,,-357,-48,977,-210,-3290,2030,184,-21,-286
19:09:39.428,,-357,-47,978,-280,-4200,1820,172,-15,-265
19:09:39.447,,-352,-55,988,-490,-5180,1680,172,-16,-277
19:09:39.466,,-350,-56,994,-280,-5740,1610,178,-21,-274
19:09:39.485,,-347,-54,1010,-210,-6020,2030,171,-16,-265
19:09:39.503,,-337,-58,1017,-350,-5670,2590,175,-22,-276
19:09:39.522,,-332,-50,1023,560,-4550,2870,175,-22,-270
19:09:39.541,,-332,-39,1023,840,-3500,2870,171,-19,-267
19:09:39.560,,-334,-34,1020,350,-2310,3080,172,-16,-271
19:09:39.579,,-339,-30,1013,350,-1190,2800,175,-15,-270
19:09:39.597,,-344,-24,1008,980,-350,2100,177,-15,-273
19:09:39.616,,-344,-22,999,1330,-140,1400,166,-16,-265
19:09:39.635,,-343,-20,992,770,-140,1120,175,-22,-267
19:09:39.654,,-339,-22,986,0,-560,1190,175,-19,-273
19:09:39.672,,-339,-26,989,-490,-910,1330,174,-19,-267
19:09:39.691,,-336,-24,994,-560,-1540,1470,171,-16,-279
19:09:39.710,,-334,-23,999,0,-2240,1400,175,-18,-276
19:09:39.729,,-332,-11,1008,840,-2380,1050,175,-18,-265
19:09:39.748,,-330,2,1009,350,-2100,770,168,-21,-279
19:09:39.766,,-328,-4,1012,-770,-1540,350,181,-16,-267
19:09:39.785,,-330,-6,1011,-700,-840,-490,168,-22,-268
19:09:39.804,,-332,-7,1012,-280,-210,-1540,168,-22,-264
19:09:39.823,,-333,-14,1006,-630,70,-2520,174,-15,-267
19:09:39.841,,-336,-25,1006,-1260,490,-3150,175,-24,-276
19:09:39.860,,-337,-32,999,-1120,630,-3360,177,-22,-271
19:09:39.879,,-340,-32,1000,-700,770,-3430,175,-24,-264
19:09:39.898,,-342,-32,997,-1120,840,-3360,171,-22,-265
19:09:39.917,,-346,-38,996,-1470,770,-3220,171,-22,-265
19:09:39.935,,-345,-40,1001,-1120,490,-3080,181,-22,-273
19:09:39.954,,-346,-33,997,-630,280,-2870,168,-19,-277
19:09:39.973,,-346,-28,996,-630,140,-2520,166,-24,-273
19:09:39.992,,-343,-35,996,-840,-140,-2660,163,-22,-274
19:09:40.010,,-342,-35,998,0,-490,-2940,174,-21,-268
19:09:40.029,,-339,-33,996,770,-910,-3220,178,-25,-270
19:09:40.048,,-337,-36,999,910,-1050,-3360,175,-18,-274
19:09:40.067,,-339,-41,1002,770,-910,-3220,181,-19,-264
19:09:40.086,,-340,-45,1000,770,-700,-2800,172,-19,-270
19:09:40.104,,-345,-48,1003,910,-280,-2240,175,-24,-262
19:09:40.123,,-347,-47,1003,1050,-140,-1820,174,-19,-267
19:09:40.142,,-348,-48,998,980,-70,-1470,171,-24,-264
19:09:40.161,,-346,-44,996,840,0,-1190,177,-24,-264
19:09:40.179,,-344,-42,999,-70,-70,-840,169,-15,-271
19:09:40.198,,-342,-49,1001,-700,-210,-420,172,-16,-270
19:09:40.217,,-343,-42,1000,-420,-70,-70,174,-22,-268
19:09:40.236,,-346,-35,995,-140,0,140,174,-15,-262
19:09:40.255,,-348,-33,997,-140,-140,140,171,-18,-277
19:09:40.273,,-346,-31,996,70,-490,-70,178,-16,-273
19:09:40.292,,-344,-30,1002,140,-420,-210,177,-18,-270
19:09:40.311,,-340,-34,1005,-280,-490,-490,168,-24,-274
19:09:40.330,,-339,-34,1005,-210,-280,-560,172,-19,-270
19:09:40.348,,-339,-38,1005,-210,-280,-560,177,-24,-262
19:09:40.367,,-338,-35,1007,350,-140,-630,171,-19,-268
19:09:40.386,,-340,-35,1003,280,210,-420,177,-21,-267
19:09:40.405,,-343,-30,996,-70,700,-280,169,-19,-271
19:09:40.424,,-347,-31,1001,-700,980,0,177,-16,-270
19:09:40.442,,-345,-33,994,-700,630,140,172,-25,-273
19:09:40.461,,-344,-29,995,350,280,0,178,-25,-276
19:09:40.480,,-347,-21,996,1120,70,-280,174,-19,-277
19:09:40.499,,-346,-22,995,350,-140,-560,169,-24,-276
19:09:40.517,,-344,-32,995,-280,-210,-910,178,-15,-271
19:09:40.536,,-346,-31,1002,70,-70,-1120,171,-15,-282
19:09:40.555,,-345,-35,1000,-140,-140,-1190,171,-21,-276
19:09:40.574,,-345,-35,1000,-350,0,-840,165,-16,-276
19:09:40.593,,-347,-33,1000,-630,140,-420,178,-16,-267
19:09:40.611,,-348,-35,995,-700,0,-210,171,-22,-265
19:09:40.630,,-345,-27,996,-140,-140,-210,171,-24,-267
19:09:40.649,,-346,-26,996,-350,-140,-280,175,-18,-271
19:09:40.668,,-343,-31,997,-630,-350,-420,172,-19,-271
19:09:40.686,,-344,-31,1001,-490,-420,-560,172,-24,-268
19:09:40.705,,-344,-33,1003,-140,-630,-700,175,-19,-276
19:09:40.724,,-343,-29,1000,70,-700,-700,168,-27,-270
19:09:40.743,,-345,-32,1000,-350,-490,-560,165,-21,-264
19:09:40.762,,-346,-35,996,-350,-350,-420,180,-16,-264
19:09:40.780,,-349,-35,1000,210,-210,-350,172,-19,-273
19:09:40.799,,-346,-34,1004,420,-280,-350,168,-15,-276
19:09:40.818,,-347,-35,1004,140,-70,-280,172,-19,-265
19:09:40.837,,-346,-34,1002,-140,70,-140,175,-19,-265
19:09:40.855,,-346,-35,996,-70,140,0,177,-22,-265
19:09:40.874,,-346,-26,994,350,420,140,177,-22,-265
19:09:40.893,,-349,-20,996,-70,700,280,166,-18,-267
19:09:40.912,,-349,-25,993,-910,490,70,172,-19,-265
19:09:40.931,,-349,-29,995,-560,-70,-420,172,-22,-267
19:09:40.949,,-348,-28,993,70,-490,-840,175,-15,-277
19:09:40.968,,-347,-32,995,70,-840,-840,169,-10,-276
19:09:40.987,,-345,-35,999,-140,-840,-560,172,-16,-271
19:09:41.006,,-347,-34,1003,-140,-490,-70,169,-13,-274
19:09:41.024,,-350,-33,1005,-420,-140,210,169,-15,-267
19:09:41.043,,-351,-33,1001,-630,70,210,172,-15,-264
19:09:41.062,,-348,-30,1000,-280,140,70,168,-19,-270
19:09:41.081,,-345,-25,996,0,70,0,183,-13,-265
19:09:41.084,>gest1_still,,,,,,,,,
19:09:41.100,,-344,-23,998,70,140,-70,174,-19,-271
19:09:41.118,,-344,-23,1004,-70,140,-280,172,-15,-268
19:09:41.137,,-345,-26,1003,-140,280,-490,171,-21,-273
19:09:41.156,,-347,-27,1001,280,350,-770,172,-13,-262
19:09:41.175,,-350,-25,998,280,630,-840,171,-12,-273
19:09:41.193,,-351,-29,994,-420,840,-700,163,-13,-279
19:09:41.212,,-353,-32,994,-560,840,-490,166,-15,-270
19:09:41.231,,-355,-32,995,-280,770,-490,168,-19,-265
19:09:41.250,,-352,-31,996,0,350,-490,169,-13,-270
19:09:41.269,,-352,-29,991,0,70,-420,171,-13,-261
19:09:41.287,,-351,-26,991,-140,-140,-280,172,-22,-277
19:09:41.306,,-352,-23,995,-490,-70,-140,175,-18,-268
19:09:41.325,,-352,-25,994,-560,-140,-350,169,-18,-271
19:09:41.344,,-357,-24,995,-420,-140,-630,171,-16,-268
19:09:41.362,,-355,-28,993,-280,-630,-980,169,-19,-279
19:09:41.381,,-351,-29,994,0,-980,-1050,171,-18,-279
19:09:41.400,,-351,-24,991,70,-1190,-910,177,-18,-267
19:09:41.419,,-350,-24,994,-350,-1400,-840,171,-16,-277
19:09:41.438,,-349,-28,996,-420,-1540,-1050,168,-21,-277
19:09:41.456,,-351,-26,999,-210,-1400,-1260,174,-18,-268
19:09:41.475,,-351,-33,1005,-560,-980,-1330,169,-19,-277
19:09:41.494,,-349,-41,1006,-630,-770,-1190,166,-12,-270
19:09:41.513,,-349,-36,1002,-280,-490,-840,174,-22,-273
19:09:41.531,,-348,-32,1000,-420,-280,-280,171,-15,-264
19:09:41.550,,-349,-35,1001,-700,-210,70,169,-25,-274
19:09:41.569,,-348,-28,998,-350,-210,140,163,-18,-268
19:09:41.588,,-347,-24,994,-490,-70,140,168,-15,-271
19:09:41.607,,-347,-27,1001,-700,0,70,168,-19,-273
19:09:41.625,,-349,-27,999,-770,0,-70,177,-21,-270
19:09:41.644,,-351,-25,995,-630,-70,-140,168,-16,-280
19:09:41.663,,-353,-25,993,-910,-70,-280,168,-15,-264
19:09:41.682,,-353,-28,990,-1050,-350,-280,174,-15,-273
19:09:41.700,,-354,-26,991,-1190,-420,-140,169,-21,-271
19:09:41.719,,-352,-30,995,-1610,-700,-70,165,-18,-270
19:09:41.738,,-351,-34,998,-1820,-840,-140,165,-16,-279
19:09:41.757,,-352,-32,1001,-1750,-560,-70,180,-24,-277
19:09:41.776,,-352,-38,1003,-1890,-490,140,163,-24,-277
19:09:41.794,,-351,-40,998,-1120,-490,280,177,-21,-268
19:09:41.813,,-354,-26,994,-350,-210,490,175,-18,-258
19:09:41.832,,-355,-22,992,-1260,-210,560,175,-18,-258
19:09:41.851,,-355,-24,985,-2660,-560,490,165,-18,-271
19:09:41.869,,-353,-26,983,-3150,-1120,280,165,-18,-270
19:09:41.888,,-352,-39,990,-2380,-2030,0,165,-15,-274
19:09:41.907,,-347,-36,996,70,-2660,-210,165,-18,-277
19:09:41.926,,-346,-27,1005,840,-2590,-210,171,-15,-273
19:09:41.945,,-344,-32,1004,-350,-2380,210,174,-22,-273
19:09:41.963,,-343,-36,1010,-1050,-1610,420,171,-16,-268
19:09:41.982,,-343,-36,1011,-560,-980,350,172,-16,-265
19:09:42.001,,-344,-31,1005,140,-490,70,175,-15,-268
19:09:42.020,,-344,-28,1002,70,-210,-70,169,-15,-268
19:09:42.038,,-347,-29,998,-700,-70,-210,171,-15,-276
19:09:42.057,,-351,-32,991,-1050,-210,-280,178,-16,-273
19:09:42.076,,-352,-32,989,-420,-630,-420,177,-22,-265
19:09:42.095,,-352,-26,985,-140,-1050,-560,166,-12,-267
19:09:42.114,,-351,-27,981,-630,-1820,-490,172,-21,-268
19:09:42.132,,-351,-27,981,-630,-1820,-490,172,-21,-277
19:09:42.151,,-351,-26,979,-1120,-2380,-560,177,-24,-270
19:09:42.170,,-350,-29,974,-1610,-2940,-420,169,-21,-268
19:09:42.189,,-350,-26,975,-1820,-3430,-280,175,-19,-270
19:09:42.207,,-352,-21,979,-3640,-3640,0,172,-18,-268
19:09:42.226,,-351,-39,970,-6650,-4480,350,175,-25,-274
19:09:42.245,,-351,-58,957,-6510,-5880,770,177,-19,-276
19:09:42.264,,-350,-56,961,-3850,-7700,1120,181,-13,-267
19:09:42.283,,-348,-53,974,-2170,-9800,1750,180,-19,-261
19:09:42.301,,-342,-57,997,-1960,-11830,2380,169,-24,-271
19:09:42.320,,-329,-67,1027,-1680,-12880,2520,178,-24,-261
19:09:42.339,,-319,-59,1049,-350,-11970,2940,175,-24,-264
19:09:42.358,,-311,-47,1066,-210,-9660,3430,177,-22,-261
19:09:42.376,,-308,-43,1071,-490,-6790,3780,183,-24,-256
19:09:42.395,,-306,-29,1062,-350,-3220,3360,181,-27,-267
19:09:42.414,,-309,-20,1044,-700,-210,2590,184,-31,-270
19:09:42.433,,-316,-31,1018,-1890,1680,1470,169,-18,-271
19:09:42.452,,-321,-49,1000,-2240,2100,350,184,-27,-267
19:09:42.470,,-325,-72,983,-1680,1120,-350,177,-25,-262
19:09:42.489,,-331,-92,964,-1680,-140,-280,180,-25,-267
19:09:42.508,,-338,-105,946,-3780,-2170,560,171,-25,-256
19:09:42.527,,-350,-133,942,-6300,-4830,2590,177,-25,-262
19:09:42.545,,-364,-135,954,-6580,-7980,4970,175,-24,-267
19:09:42.564,,-354,-122,954,-6650,-11060,7350,178,-24,-265
19:09:42.583,,-338,-105,950,-8890,-13930,9380,180,-27,-255
19:09:42.602,,-323,-106,958,-11410,-16660,11830,181,-25,-267
19:09:42.621,,-307,-99,944,-13160,-17430,13790,178,-28,-264
19:09:42.639,,-323,-94,978,-13930,-17780,15120,178,-34,-268
19:09:42.658,,-324,-92,998,-15820,-19040,15610,186,-31,-261
19:09:42.677,,-329,-96,1033,-15820,-20930,17640,184,-30,-261
19:09:42.696,,-342,-74,1068,-13230,-23170,20370,189,-33,-261
19:09:42.714,,-334,-62,1104,-9170,-26320,24010,193,-34,-250
19:09:42.733,,-315,-39,1163,-3010,-28210,27440,186,-40,-253
19:09:42.752,,-281,-14,1203,2870,-28840,29470,183,-43,-258
19:09:42.771,,-254,18,1214,7560,-26600,29680,190,-45,-253
19:09:42.790,,-232,35,1212,11270,-22190,28070,190,-45,-253
19:09:42.808,,-210,43,1201,15540,-16730,25690,186,-49,-256
19:09:42.827,,-187,50,1181,19320,-10500,22190,181,-43,-259
19:09:42.846,,-179,50,1151,22120,-3850,17500,183,-42,-261
19:09:42.865,,-180,38,1100,23800,1120,11900,186,-46,-262
19:09:42.883,,-180,26,1049,25760,3290,6930,178,-49,-270
19:09:42.902,,-171,29,1015,27860,3150,3360,174,-45,-267
19:09:42.921,,-167,35,983,28280,1260,840,172,-43,-256
19:09:42.940,,-152,35,956,27580,-1890,-1750,175,-42,-261
19:09:42.959,,-136,36,934,26460,-4480,-4830,178,-46,-273
19:09:42.977,,-117,53,924,25270,-6650,-7980,172,-49,-271
19:09:42.996,,-107,72,903,21980,-7630,-10780,166,-49,-264
19:09:43.015,,-111,98,906,18130,-8190,-13300,168,-43,-270
19:09:43.034,,-121,139,941,15120,-9380,-16100,165,-45,-265
19:09:43.052,,-123,189,987,14350,-10920,-20090,157,-48,-277
19:09:43.071,,-115,252,1019,14350,-10570,-26670,154,-42,-270
19:09:43.090,,-119,265,1026,13090,-8260,-35350,159,-46,-270
19:09:43.109,,-127,239,1022,10570,-6160,-45920,154,-51,-264
19:09:43.128,,-131,169,1032,9800,-5460,-56070,154,-48,-261
19:09:43.146,,-133,93,1040,12180,-5530,-62160,153,-46,-273
19:09:43.165,,-144,38,1037,14840,-6930,-62790,150,-49,-271
19:09:43.184,,-153,6,1024,15680,-9590,-58590,142,-61,-273
19:09:43.203,,-164,-22,1003,14770,-12250,-51660,145,-48,-270
19:09:43.221,,-172,-39,992,12320,-14700,-44520,147,-57,-274
19:09:43.240,,-186,-43,996,7210,-16590,-38220,151,-55,-267
19:09:43.259,,-191,-56,990,70,-18690,-32480,138,-55,-276
19:09:43.278,,-176,-88,969,-4480,-19460,-26880,142,-57,-270
19:09:43.297,,-174,-105,971,-4410,-16660,-21700,142,-58,-270
19:09:43.315,,-196,-84,1018,420,-14630,-18200,136,-64,-271
19:09:43.334,,-200,-40,1080,8400,-14630,-15960,139,-55,-264
19:09:43.353,,-210,0,1097,14420,-13580,-13650,139,-55,-256
19:09:43.372,,-256,50,1071,13090,-11480,-12880,136,-66,-264
19:09:43.390,,-241,29,1068,9940,-10780,-12530,126,-55,-261
19:09:43.409,,-239,33,1071,7140,-9450,-10850,136,-58,-267
19:09:43.428,,-242,37,1079,5740,-9380,-7280,136,-61,-271
19:09:43.447,,-246,46,1097,5390,-8540,-3150,133,-66,-264
19:09:43.466,,-227,43,1109,3430,-8190,770,133,-60,-262
19:09:43.484,,-224,51,1108,1470,-6790,4480,132,-63,-267
19:09:43.503,,-221,57,1079,-1330,-5740,7000,129,-61,-259
19:09:43.522,,-236,65,1026,-3990,-4550,9450,133,-60,-259
19:09:43.541,,-242,58,990,-4690,-4340,12460,130,-63,-267
19:09:43.559,,-233,66,1014,-3360,-4130,15120,129,-70,-270
19:09:43.578,,-220,68,1042,-4900,-3500,17710,132,-67,-264
19:09:43.597,,-211,72,1034,-7210,-2660,19530,124,-60,-265
19:09:43.616,,-203,75,1023,-8540,-1540,21070,135,-67,-267
19:09:43.635,,-199,66,1023,-9240,-630,22540,136,-70,-271
19:09:43.653,,-194,73,1020,-8680,0,23660,139,-60,-258
19:09:43.672,,-186,96,1011,-8190,140,24500,141,-61,-265
19:09:43.691,,-187,104,993,-9450,70,25200,138,-60,-256
19:09:43.710,,-175,100,991,-10010,-1330,25130,150,-67,-261
19:09:43.728,,-160,113,1001,-8120,-2520,24220,150,-67,-261
19:09:43.747,,-152,133,1016,-5880,-3080,22540,150,-70,-264
19:09:43.766,,-137,142,1036,-5390,-3570,19950,151,-66,-268
19:09:43.785,,-126,139,1052,-6370,-3850,16450,141,-69,-261
19:09:43.804,,-117,131,1047,-6300,-4200,12670,150,-64,-259
19:09:43.822,,-103,126,1042,-4970,-4550,9380,147,-66,-255
19:09:43.841,,-89,118,1056,-4130,-4200,7140,154,-72,-268
19:09:43.860,,-81,117,1073,-4690,-3710,5460,153,-69,-253
19:09:43.879,,-76,119,1077,-6440,-3570,4550,151,-70,-264
19:09:43.897,,-63,107,1076,-7700,-3220,3360,157,-69,-255
19:09:43.916,,-63,107,1076,-7700,-3220,3360,153,-66,-255
19:09:43.935,,-52,90,1076,-8050,-2030,1540,156,-70,-256
19:09:43.954,,-52,76,1071,-5810,-2030,-980,156,-63,-258
19:09:43.973,,-30,64,1073,-1680,-3080,-4480,145,-72,-264
19:09:43.991,,-15,55,1079,1820,-2450,-7980,157,-76,-252
19:09:44.010,,-4,50,1073,6370,-1050,-10500,148,-69,-256
19:09:44.029,,-7,57,1057,8330,1190,-12180,145,-73,-256
19:09:44.048,,-20,57,1041,7140,3010,-12530,147,-66,-262
19:09:44.066,,-32,53,1031,5600,4340,-12250,147,-69,-261
19:09:44.085,,-46,42,1031,4270,5040,-11480,144,-66,-255
19:09:44.104,,-66,33,1027,3990,4760,-10780,154,-72,-258
19:09:44.123,,-88,29,1024,4900,4060,-10430,144,-78,-264
19:09:44.142,,-105,42,1025,6090,2800,-10500,147,-66,-265
19:09:44.160,,-106,64,1037,5810,1120,-10360,147,-69,-252
19:09:44.179,,-112,52,1039,4900,420,-9940,150,-69,-262
19:09:44.198,,-119,60,1042,5460,-210,-10430,147,-69,-259
19:09:44.217,,-112,73,1056,5040,-560,-11130,147,-75,-261
19:09:44.235,,-108,75,1066,3850,-490,-11480,144,-72,-253
19:09:44.254,,-116,79,1061,2730,70,-11480,145,-72,-264
19:09:44.273,,-118,80,1058,1260,700,-10850,150,-73,-268
19:09:44.292,,-118,77,1058,-140,1540,-9660,141,-67,-264
19:09:44.311,,-123,63,1059,-1470,2170,-8400,144,-66,-253
19:09:44.329,,-132,55,1052,-980,2310,-7420,145,-66,-270
19:09:44.348,,-139,57,1046,1050,2100,-6720,142,-67,-261
19:09:44.367,,-141,63,1045,2590,1820,-6300,142,-61,-259
19:09:44.386,,-140,66,1048,2800,1750,-6160,144,-66,-265
19:09:44.404,,-142,61,1051,2660,1750,-6300,138,-69,-270
19:09:44.423,,-136,62,1060,3010,2170,-6650,142,-66,-264
19:09:44.442,,-128,64,1059,2800,2800,-7000,145,-64,-264
19:09:44.461,,-117,59,1059,2520,3220,-7350,136,-60,-262
19:09:44.479,,-102,53,1058,2520,3360,-7840,136,-64,-265
19:09:44.498,,-90,35,1049,2380,3780,-8190,135,-64,-267
19:09:44.517,,-91,10,1032,1610,4410,-7700,139,-70,-270
19:09:44.536,,-123,0,1024,980,4830,-4690,142,-60,-277
19:09:44.555,,-146,9,1035,210,3780,700,136,-55,-264
19:09:44.573,,-166,34,1031,-2520,2590,5670,142,-61,-268
19:09:44.592,,-186,65,1034,-5880,2030,9030,133,-60,-268
19:09:44.611,,-206,63,1039,-8680,1540,10570,139,-61,-262
19:09:44.630,,-212,50,1033,-4690,70,9660,142,-66,-264
19:09:44.649,,-221,77,1040,3150,140,6930,142,-66,-264
19:09:44.667,,-232,112,1050,8890,140,4200,147,-57,-261
19:09:44.686,,-230,141,1050,10290,70,2030,136,-64,-262
19:09:44.705,,-234,158,1047,8330,910,560,138,-55,-264
19:09:44.724,,-232,167,1037,4900,1400,-980,144,-61,-276
19:09:44.742,,-229,160,1033,1750,1120,-2800,135,-61,-265
19:09:44.761,,-222,168,1041,1610,700,-5040,138,-64,-271
19:09:44.780,,-208,173,1060,1330,490,-8260,133,-60,-267
19:09:44.799,,-195,149,1072,280,280,-11830,141,-55,-255
19:09:44.817,,-186,124,1060,1540,280,-14630,145,-58,-264
19:09:44.836,,-184,120,1058,4760,1400,-15820,139,-57,-273
19:09:44.855,,-199,134,1067,6020,2870,-14980,138,-58,-270
19:09:44.874,,-216,128,1057,3430,3640,-13370,135,-61,-276
19:09:44.893,,-233,114,1043,1470,3150,-11550,124,-60,-270
19:09:44.911,,-253,111,1032,2310,2100,-10080,133,-54,-265
19:09:44.930,,-261,113,1032,2520,210,-9450,129,-67,-255
19:09:44.949,,-246,89,1046,910,-2240,-9660,129,-52,-268
19:09:44.968,,-224,34,1058,1400,-3990,-10150,126,-61,-277
19:09:44.986,,-210,11,1058,7280,-4410,-9870,130,-63,-267
19:09:45.005,,-193,7,1063,11340,-3150,-8400,126,-55,-274
19:09:45.024,,-185,8,1046,9170,-840,-5250,133,-55,-268
19:09:45.043,,-182,-17,1025,3430,1890,-280,130,-60,-273
19:09:45.062,,-176,-43,1031,-420,4130,4690,126,-61,-271
19:09:45.080,,-159,-61,1026,0,5460,8400,132,-64,-267
19:09:45.099,,-158,-46,1003,4060,6510,11340,132,-58,-261
19:09:45.118,,-153,-13,1008,7630,7000,14280,132,-58,-276
19:09:45.137,,-151,37,1013,5460,7630,17080,129,-58,-271
19:09:45.155,,-138,33,1016,1890,7070,18480,129,-61,-279
19:09:45.174,,-134,89,993,-420,6720,19390,133,-58,-268
19:09:45.193,,-106,76,990,-1610,5740,20440,138,-58,-268
19:09:45.212,,-99,113,994,-2800,6090,20370,132,-57,-276
19:09:45.231,,-72,118,1002,-3360,6160,19320,127,-57,-276
19:09:45.249,,-67,121,957,-5740,6370,17290,133,-63,-273
19:09:45.268,,-49,46,970,-8680,5250,16940,141,-61,-276
19:09:45.287,,-115,192,1006,-5460,5880,17850,133,-57,-264
19:09:45.306,,-39,80,1000,-12250,1400,19110,132,-57,-274
19:09:45.324,,-79,94,989,-12950,420,20020,139,-52,-267
19:09:45.343,,-87,94,1010,-14000,-700,19670,144,-54,-273
19:09:45.362,,-95,100,1028,-17080,-2030,19530,139,-55,-277
19:09:45.381,,-107,87,1044,-20370,-3290,19460,135,-55,-279
19:09:45.400,,-124,75,1042,-19810,-4130,19390,144,-54,-270
19:09:45.418,,-142,72,1034,-14490,-4480,18270,150,-57,-268
19:09:45.437,,-147,105,1051,-7350,-4620,16100,145,-52,-271
19:09:45.456,,-158,130,1065,-3990,-4130,13580,153,-58,-265
19:09:45.475,,-167,142,1073,-3500,-3710,11200,148,-61,-271
19:09:45.493,,-166,137,1083,-4480,-3360,9170,150,-54,-267
19:09:45.512,,-164,133,1081,-5670,-2940,7350,147,-55,-270
19:09:45.531,,-168,111,1068,-6160,-2170,6230,151,-61,-264
19:09:45.550,,-166,98,1060,-5320,-1820,5460,154,-58,-265
19:09:45.569,,-184,88,1059,-5180,-1330,5530,154,-58,-265
19:09:45.587,,-197,74,1061,-5250,-1750,6440,151,-60,-261
19:09:45.606,,-212,79,1055,-5530,-2660,7630,148,-57,-270
19:09:45.625,,-226,89,1049,-4970,-3990,8820,153,-51,-259
19:09:45.644,,-235,107,1048,-2940,-5320,9170,151,-57,-258
19:09:45.662,,-230,141,1047,0,-5600,8050,154,-55,-255
19:09:45.681,,-234,178,1047,1050,-3990,6020,148,-54,-264
19:09:45.700,,-234,178,1047,1050,-3990,6020,154,-60,-262
19:09:45.719,,-234,200,1046,490,-2800,3010,156,-60,-268
19:09:45.738,,-221,196,1045,420,-1960,-1400,151,-55,-264
19:09:45.756,,-228,197,1036,210,-70,-6230,153,-60,-267
19:09:45.775,,-223,172,1034,-700,210,-10290,154,-55,-271
19:09:45.794,,-205,121,1043,-1120,-420,-12950,154,-51,-262
19:09:45.813,,-195,86,1059,-350,-420,-14070,147,-57,-267
19:09:45.831,,-183,61,1077,-420,-350,-13510,142,-57,-264
19:09:45.850,,-169,32,1088,-1680,-280,-11760,153,-57,-268
19:09:45.869,,-163,18,1082,-1120,210,-9310,144,-64,-264
19:09:45.888,,-158,23,1064,910,1540,-7000,151,-60,-261
19:09:45.907,,-161,42,1053,2730,3290,-5320,156,-54,-259
19:09:45.925,,-158,49,1051,2730,4270,-4760,157,-61,-271
19:09:45.944,,-153,56,1042,3360,4200,-5110,153,-55,-265
19:09:45.963,,-150,64,1028,4900,3780,-5880,151,-51,-267
19:09:45.982,,-139,72,1014,5880,2940,-7000,147,-57,-258
19:09:46.000,,-130,69,1001,6020,2310,-7770,153,-58,-264
19:09:46.019,,-119,57,1005,5950,1610,-7980,145,-58,-270
19:09:46.038,,-116,48,1011,5670,770,-7770,148,-58,-267
19:09:46.057,,-123,50,1009,5110,0,-6720,148,-54,-268
19:09:46.075,,-127,54,1006,3640,-1120,-5040,145,-57,-268
19:09:46.094,,-132,55,1005,2030,-2310,-3290,151,-57,-262
19:09:46.113,,-134,61,1012,1120,-3500,-2030,150,-58,-262
19:09:46.132,,-140,66,1021,1260,-4690,-1610,147,-60,-270
19:09:46.151,,-147,80,1027,1610,-5460,-1890,139,-55,-265
19:09:46.169,,-150,88,1030,1400,-6020,-2380,144,-60,-271
19:09:46.188,,-156,84,1035,1890,-6160,-3080,145,-57,-264
19:09:46.207,,-159,90,1038,3710,-5810,-3920,142,-61,-262
19:09:46.226,,-165,93,1043,4970,-5600,-4340,144,-61,-265
19:09:46.245,,-169,99,1059,5040,-5810,-4130,145,-61,-265
19:09:46.263,,-170,99,1065,4410,-5950,-3920,148,-67,-259
19:09:46.282,,-166,108,1068,4550,-5530,-3920,136,-69,-258
19:09:46.301,,-162,118,1067,4620,-4410,-4270,139,-61,-255
19:09:46.320,,-155,122,1062,3570,-2940,-4970,138,-60,-270
19:09:46.338,,-155,113,1060,1750,-1260,-5250,141,-57,-270
19:09:46.357,,-150,96,1050,1260,-980,-5320,144,-63,-259
19:09:46.376,,-155,96,1035,2520,-1190,-4900,142,-63,-268
19:09:46.395,,-163,106,1031,4200,-2100,-4200,139,-63,-262
19:09:46.414,,-166,121,1030,5950,-3640,-3780,130,-63,-264
19:09:46.432,,-166,141,1041,7910,-4550,-4060,136,-57,-252
19:09:46.451,,-171,164,1044,8050,-4620,-5250,135,-61,-268
19:09:46.470,,-179,175,1046,5810,-3640,-6790,142,-57,-261
19:09:46.489,,-196,159,1049,1750,-2030,-7910,138,-72,-256
19:09:46.507,,-212,131,1056,-840,-1050,-8050,138,-72,-256
19:09:46.526,,-212,107,1064,-1330,-700,-7770,138,-63,-258
19:09:46.545,,-207,92,1065,-1680,-210,-7280,138,-61,-268
19:09:46.564,,-197,78,1056,-2100,420,-7070,133,-57,-268
19:09:46.583,,-195,70,1043,-3430,2310,-6930,136,-60,-270
19:09:46.601,,-193,42,1037,-5880,3920,-6300,138,-60,-267
19:09:46.620,,-190,9,1032,-7280,4830,-5040,136,-57,-262
19:09:46.639,,-184,-23,1034,-6370,4690,-2940,136,-64,-267
19:09:46.658,,-167,-29,1035,-3220,3430,140,141,-66,-262
19:09:46.676,,-152,-15,1025,-1260,3150,4270,141,-58,-264
19:09:46.695,,-144,8,1016,-1750,3780,9100,147,-60,-268
19:09:46.714,,-137,33,1030,-3290,4900,13440,147,-63,-267
19:09:46.733,,-130,56,1040,-4830,5880,15540,141,-60,-262
19:09:46.752,,-128,79,1033,-5250,7070,15890,142,-67,-259
19:09:46.770,,-126,90,1031,-5530,8120,14910,138,-64,-262
19:09:46.789,,-124,95,1026,-6440,8610,13090,135,-63,-270
19:09:46.808,,-127,98,1023,-6230,8820,11620,136,-57,-270
19:09:46.827,,-126,106,1037,-4550,8400,10500,144,-61,-276
19:09:46.845,,-122,108,1038,-3990,7420,9380,145,-63,-270
19:09:46.864,,-119,102,1025,-4130,7000,8260,148,-52,-268
19:09:46.883,,-119,96,1018,-5110,6510,6720,145,-54,-259
19:09:46.902,,-124,90,1021,-5460,5390,6090,151,-54,-267
19:09:46.921,,-129,98,1012,-5110,3780,5180,147,-51,-267
19:09:46.939,,-141,112,1006,-4340,2380,3990,153,-51,-268
19:09:46.958,,-158,125,996,-4410,1680,2240,148,-55,-265
19:09:46.977,,-178,123,998,-5390,1120,560,145,-60,-274
19:09:46.996,,-204,117,1010,-6650,140,-910,144,-52,-271
19:09:47.014,,-219,104,1022,-6510,-1750,-2170,147,-54,-262
19:09:47.033,,-219,101,1038,-4480,-3850,-3290,151,-55,-264
19:09:47.052,,-205,109,1063,-2170,-5390,-4340,148,-54,-264
19:09:47.071,,-187,107,1083,-1750,-5460,-5040,150,-64,-256
19:09:47.089,,-183,104,1072,-2170,-3710,-5600,147,-40,-267
19:09:47.108,,-185,98,1073,-2450,-980,-6020,147,-54,-264
19:09:47.127,,-201,92,1079,-3640,1820,-5880,148,-57,-261
19:09:47.146,,-211,64,1074,-4410,2800,-5110,147,-55,-268
19:09:47.165,,-213,54,1070,-2240,2520,-3990,151,-52,-258
19:09:47.183,,-200,60,1060,560,2240,-2800,147,-55,-264
19:09:47.202,,-185,60,1047,1120,2660,-2100,147,-54,-271
19:09:47.221,,-177,54,1043,0,4200,-1960,150,-52,-267
19:09:47.240,,-187,39,1041,-2520,5810,-1680,151,-57,-264
19:09:47.259,,-197,13,1035,-5670,6090,-630,150,-63,-268
19:09:47.277,,-208,-4,1031,-7840,5600,1330,150,-51,-265
19:09:47.296,,-214,-14,1027,-8820,4410,3780,151,-55,-270
19:09:47.315,,-219,-23,1026,-8610,3150,6440,154,-49,-262
19:09:47.334,,-223,-25,1016,-6090,2030,8540,151,-55,-265
19:09:47.352,,-222,-9,992,-4060,2380,10080,154,-51,-265
19:09:47.371,,-221,0,989,-6090,3150,11340,154,-55,-265
19:09:47.390,,-219,-12,992,-9730,2940,13230,159,-49,-267
19:09:47.409,,-221,-15,986,-10570,2170,14910,151,-52,-264
19:09:47.428,,-225,28,985,-9100,1470,16310,159,-48,-265
19:09:47.446,,-230,77,1000,-9800,630,17570,159,-48,-265
19:09:47.465,,-230,112,1023,-12320,-490,17780,162,-58,-262
19:09:47.484,,-230,112,1023,-12810,-1190,16380,168,-52,-253
19:09:47.503,,-222,143,1063,-12810,-1190,16380,159,-51,-258
19:09:47.521,,-209,184,1090,-11130,-840,12460,160,-52,-258
19:09:47.540,,-198,198,1106,-8680,770,6930,153,-51,-262
19:09:47.559,,-185,189,1110,-6650,2870,840,156,-49,-253
19:09:47.578,,-183,166,1098,-4760,5180,-4340,163,-48,-258
19:09:47.597,,-183,118,1093,-2660,6160,-7700,159,-45,-259
19:09:47.615,,-175,75,1087,630,5250,-9660,168,-45,-261
19:09:47.634,,-166,48,1071,4760,3570,-10150,160,-51,-264
19:09:47.653,,-157,43,1050,8050,1610,-9730,157,-46,-274
19:09:47.672,,-153,36,1034,8890,280,-8610,166,-49,-262
19:09:47.690,,-154,29,1027,8680,-1120,-7700,156,-33,-262
19:09:47.709,,-154,22,1025,9310,-2730,-7420,153,-48,-261
19:09:47.728,,-156,28,1022,10360,-3780,-7630,159,-48,-267
19:09:47.747,,-164,35,1011,9380,-4130,-7840,153,-43,-265
19:09:47.766,,-175,21,1009,6860,-4270,-7420,154,-45,-276
19:09:47.784,,-186,13,1015,5880,-4550,-6720,153,-52,-259
19:09:47.803,,-197,17,1013,6230,-4690,-6230,147,-52,-267
19:09:47.822,,-206,34,1013,6090,-4550,-5810,151,-58,-265
19:09:47.841,,-212,41,1011,4060,-4340,-5320,162,-58,-261
19:09:47.859,,-217,39,1014,2240,-4130,-4690,150,-52,-270
19:09:47.878,,-220,40,1019,1890,-3990,-4410,150,-55,-261
19:09:47.897,,-221,52,1027,2660,-3780,-4410,154,-51,-264
19:09:47.916,,-219,56,1030,2170,-3570,-4690,162,-49,-256
19:09:47.935,,-219,56,1027,1540,-3150,-4690,151,-45,-274
19:09:47.953,,-220,58,1037,1330,-3080,-4200,156,-54,-274
19:09:47.972,,-217,57,1041,630,-3360,-3570,145,-48,-264
19:09:47.991,,-209,53,1041,490,-3780,-2940,154,-51,-258
19:09:48.010,,-206,57,1043,910,-3850,-2380,157,-54,-274
19:09:48.028,,-208,61,1040,980,-3920,-1890,154,-55,-270
19:09:48.047,,-206,60,1041,1120,-4060,-1470,150,-55,-265
19:09:48.066,,-204,65,1051,1680,-3990,-1540,156,-46,-271
19:09:48.085,,-199,67,1053,1750,-3640,-1680,145,-48,-270
19:09:48.104,,-198,55,1051,1680,-3150,-1330,147,-55,-264
19:09:48.122,,-195,52,1057,2310,-2450,-910,153,-48,-267
19:09:48.141,,-195,55,1055,2240,-1400,-420,148,-48,-264
19:09:48.160,,-194,57,1050,1260,-770,350,154,-57,-258
19:09:48.179,,-200,51,1039,560,-280,910,157,-60,-265
19:09:48.197,,-199,53,1036,1960,-560,1120,153,-49,-258
19:09:48.216,,-196,72,1033,3710,-700,1050,157,-51,-267
19:09:48.235,,-193,79,1026,3080,-630,1050,156,-52,-264
19:09:48.254,,-190,72,1027,1680,-210,1120,148,-49,-268
19:09:48.273,,-191,68,1029,1120,-70,1120,148,-48,-265
19:09:48.291,,-188,68,1030,1400,-210,840,148,-48,-268
19:09:48.310,,-185,68,1032,840,-280,630,144,-51,-267
19:09:48.329,,-186,59,1028,-700,-70,770,147,-54,-259
19:09:48.348,,-193,49,1027,-2660,350,1050,144,-57,-268
19:09:48.366,,-197,32,1038,-4060,490,1680,145,-51,-262
19:09:48.385,,-195,20,1045,-4340,140,2380,145,-51,-262
19:09:48.404,,-194,16,1047,-2800,70,3430,148,-57,-262
19:09:48.423,,-192,38,1050,-630,630,4830,151,-55,-258
19:09:48.442,,-188,61,1052,-840,1680,6090,148,-58,-264
19:09:48.460,,-182,68,1048,-2590,2310,6860,147,-52,-267
19:09:48.479,,-178,71,1045,-2310,2800,6930,151,-58,-268
19:09:48.498,,-170,84,1044,-280,3010,6160,157,-49,-273
19:09:48.517,,-169,94,1034,-140,3150,5320,153,-55,-259
19:09:48.535,,-172,86,1024,-1540,2940,4760,147,-54,-265
19:09:48.554,,-177,77,1026,-2100,2170,4410,150,-52,-268
19:09:48.573,,-178,76,1028,-1820,980,4060,153,-51,-265
19:09:48.592,,-173,70,1025,-2170,0,3710,154,-40,-264
19:09:48.611,,-174,48,1020,-2940,-560,3150,156,-52,-264
19:09:48.629,,-185,35,1019,-2940,-910,2590,150,-49,-268
19:09:48.648,,-193,26,1011,-3360,-1330,2380,150,-55,-256
19:09:48.667,,-197,24,1003,-4480,-1680,2520,151,-51,-262
19:09:48.686,,-201,27,1008,-6020,-1820,2940,156,-49,-273
19:09:48.704,,-203,33,1013,-7000,-2030,3430,151,-51,-264
19:09:48.723,,-204,48,1017,-6510,-2310,3500,154,-52,-258
19:09:48.742,,-204,71,1026,-6160,-1960,3290,156,-55,-265
19:09:48.761,,-203,82,1039,-7210,-1260,3150,154,-51,-265
19:09:48.780,,-204,78,1054,-8330,-980,2870,156,-55,-259
19:09:48.798,,-200,77,1064,-7350,-980,2240,162,-48,-264
19:09:48.817,,-197,89,1070,-5810,-420,1820,153,-54,-265
19:09:48.836,,-192,91,1079,-4970,350,1890,162,-48,-268
19:09:48.855,,-186,87,1082,-4270,1400,1610,153,-51,-258
19:09:48.873,,-192,82,1070,-3080,2520,770,165,-54,-259
19:09:48.892,,-193,71,1063,-2030,2940,-70,154,-57,-268
19:09:48.911,,-198,60,1047,-1330,2870,-490,162,-54,-268
19:09:48.930,,-198,48,1038,-210,2240,-210,162,-55,-264
19:09:48.949,,-195,53,1036,1120,1470,140,160,-51,-265
19:09:48.967,,-191,58,1031,1400,770,490,159,-49,-271
19:09:48.986,,-189,63,1029,980,280,560,150,-51,-261
19:09:49.005,,-190,63,1032,700,70,70,151,-51,-259
19:09:49.024,,-188,64,1031,630,210,-1050,160,-48,-268
19:09:49.042,,-184,61,1035,560,490,-2030,150,-48,-261
19:09:49.061,,-178,52,1032,70,980,-2590,157,-52,-268
19:09:49.080,,-177,41,1030,-420,1260,-2520,151,-60,-261
19:09:49.099,,-174,39,1028,-140,1260,-2240,157,-46,-258
19:09:49.118,,-178,44,1022,420,1190,-1750,156,-57,-276
19:09:49.136,,-178,49,1025,840,630,-1470,157,-48,-261
19:09:49.155,,-183,60,1025,770,70,-1400,163,-49,-264
19:09:49.174,,-184,63,1023,140,-700,-1610,163,-54,-270
19:09:49.193,,-182,61,1022,0,-1400,-2170,159,-52,-255
19:09:49.211,,-184,62,1024,210,-1820,-2870,160,-57,-267
19:09:49.230,,-187,59,1029,280,-2240,-3430,154,-51,-258
19:09:49.249,,-189,55,1031,350,-2870,-3780,159,-51,-268
19:09:49.268,,-189,55,1031,980,-3430,-3990,160,-54,-256
19:09:49.287,,-188,55,1034,980,-3430,-3990,151,-54,-271
19:09:49.305,,-188,62,1037,1260,-3640,-4060,156,-60,-268
19:09:49.324,,-193,62,1040,560,-3640,-4060,156,-60,-268
19:09:49.343,,-193,55,1045,560,-3780,-4270,156,-60,-262
19:09:49.362,,-196,56,1051,1400,-3640,-4830,154,-54,-259
19:09:49.380,,-196,53,1050,1680,-3500,-5390,153,-58,-268
19:09:49.399,,-192,46,1057,1750,-3150,-5250,150,-49,-270
19:09:49.418,,-190,43,1059,2030,-2660,-4900,156,-52,-267
19:09:49.437,,-190,43,1054,2450,-1960,-4200,159,-49,-267
19:09:49.456,,-191,49,1054,2590,-1190,-3500,157,-63,-261
19:09:49.474,,-192,46,1050,1750,-490,-2940,157,-55,-264
19:09:49.493,,-194,38,1042,1470,-70,-2660,157,-54,-267
19:09:49.512,,-197,40,1037,2030,420,-2520,151,-51,-270
19:09:49.531,,-201,38,1033,1540,630,-2170,159,-39,-253
19:09:49.549,,-200,33,1032,770,700,-1400,153,-46,-271
19:09:49.568,,-203,41,1031,630,840,-560,153,-52,-270
19:09:49.587,,-210,45,1027,420,770,70,159,-48,-259
19:09:49.606,,-211,50,1028,630,350,280,153,-52,-268
19:09:49.625,,-210,57,1029,910,140,280,150,-51,-271
19:09:49.643,,-202,61,1030,630,0,420,147,-52,-267
19:09:49.662,,-198,64,1035,-280,490,350,156,-46,-268
19:09:49.681,,-199,54,1035,-840,630,0,157,-52,-262
19:09:49.700,,-197,50,1033,-280,490,-280,151,-51,-258
19:09:49.718,,-194,59,1032,-350,280,-350,156,-54,-262
19:09:49.737,,-190,48,1032,-1540,0,-70,151,-51,-273
19:09:49.756,,-187,46,1039,-1120,0,140,151,-52,-270
19:09:49.775,,-187,57,1040,-140,0,70,148,-46,-274
19:09:49.794,,-187,63,1035,-350,-70,140,162,-57,-267
19:09:49.802,<gest1_still,,,,,,,,,
19:09:49.812,,-186,64,1035,-840,-140,280,153,-48,-268
19:09:49.831,,-185,67,1034,-980,-70,70,160,-46,-270
19:09:49.850,,-188,64,1038,-770,0,-350,147,-51,-264
19:09:49.869,,-189,60,1043,-210,-350,-840,159,-51,-255
19:09:49.887,,-187,59,1041,490,-630,-1190,153,-55,-262
19:09:49.906,,-186,63,1039,420,-420,-1190,154,-51,-268
19:09:49.925,,-188,59,1040,-700,0,-910,156,-55,-268
19:09:49.944,,-193,51,1039,-1260,140,-700,154,-54,-264
19:09:49.963,,-196,56,1037,-70,0,-700,154,-55,-265
19:09:49.981,,-198,68,1035,350,-140,-770,153,-57,-259
19:09:50.000,,-195,64,1036,0,-490,-700,154,-55,-267
19:09:50.019,,-195,66,1039,0,-280,-910,156,-51,-261
19:09:50.038,,-191,67,1041,140,-210,-1120,151,-55,-267
19:09:50.056,,-191,61,1039,-70,-210,-1330,148,-46,-265
19:09:50.075,,-191,59,1040,420,-140,-1330,156,-49,-268
19:09:50.094,,-193,61,1041,980,-420,-1330,144,-49,-273
19:09:50.113,,-195,66,1038,1190,-700,-1190,151,-49,-258
19:09:50.132,,-194,67,1038,980,-770,-980,154,-57,-256
19:09:50.150,,-194,63,1034,770,-630,-980,150,-52,-271
19:09:50.169,,-190,61,1037,1330,-350,-980,150,-51,-265
19:09:50.188,,-189,65,1036,1120,0,-770,148,-55,-270
19:09:50.207,,-187,60,1033,560,70,-420,147,-43,-265
19:09:50.225,,-188,64,1036,700,210,-420,148,-45,-276
19:09:50.244,,-183,69,1035,980,350,-910,154,-54,-268
19:09:50.263,,-183,65,1034,700,910,-1610,153,-48,-261
19:09:50.282,,-183,64,1031,420,1330,-2240,153,-48,-261
19:09:50.301,,-191,61,1025,-420,1890,-2240,151,-49,-270
19:09:50.319,,-201,54,1017,-1400,1750,-1750,154,-51,-268
19:09:50.338,,-209,52,1016,-1050,910,-1190,154,-52,-262
19:09:50.357,,-210,57,1015,-210,-420,-910,159,-54,-271
19:09:50.376,,-210,63,1018,420,-1540,-980,154,-51,-270
19:09:50.394,,-204,69,1025,0,-2240,-1400,147,-49,-270
19:09:50.413,,-199,65,1031,-1120,-2450,-2100,151,-45,-264
19:09:50.432,,-195,56,1035,-1470,-2590,-2590,156,-60,-264
19:09:50.451,,-196,59,1042,-910,-2660,-2870,148,-52,-265
19:09:50.470,,-193,59,1044,-840,-2870,-2940,160,-52,-259
19:09:50.488,,-192,63,1042,-840,-2730,-2940,150,-55,-264
19:09:50.507,,-192,65,1045,-980,-2520,-2870,147,-52,-268
19:09:50.526,,-191,64,1049,-770,-2170,-3080,147,-55,-268
19:09:50.545,,-192,68,1052,-420,-1610,-3500,157,-52,-267
19:09:50.563,,-193,68,1050,-420,-1120,-4130,153,-60,-255
19:09:50.582,,-195,67,1045,-350,-700,-4410,150,-55,-268
19:09:50.601,,-199,68,1041,0,-350,-4340,156,-51,-264
19:09:50.620,,-202,67,1035,0,-70,-4130,150,-48,-271
19:09:50.639,,-205,59,1031,-560,70,-3850,145,-55,-267
19:09:50.657,,-211,47,1029,-560,-140,-3360,148,-52,-268
19:09:50.676,,-213,39,1029,210,-770,-2660,154,-57,-271
19:09:50.695,,-212,41,1030,1260,-1400,-1890,150,-48,-270
19:09:50.714,,-206,45,1032,1260,-1750,-1120,147,-51,-268
19:09:50.732,,-201,48,1036,490,-1540,-350,156,-46,-265
19:09:50.751,,-195,47,1042,-420,-1190,350,154,-57,-256
19:09:50.770,,-193,49,1042,-560,-840,910,151,-54,-256
19:09:50.789,,-191,57,1043,70,-630,1190,147,-45,-273
19:09:50.808,,-191,67,1044,0,-280,1260,156,-51,-270
19:09:50.826,,-189,67,1042,-70,-490,1050,153,-58,-268
19:09:50.845,,-188,75,1048,350,-350,840,144,-42,-271
19:09:50.864,,-184,79,1050,280,-210,420,153,-57,-277
19:09:50.883,,-183,74,1048,140,140,-210,147,-52,-265
