Sensors' Acquisition [Hz]: Acc@52.0 Gyro@52.0 Mag@52.0 
hh:mm:ss.ms, Annotation , AccX [mg], AccY, AccZ, GyroX [mdps], GyroY, GyroZ, MagX [mgauss], MagY, MagZ
10:52:23.386,,-136,-26,1032,1400,-1470,-1540,279,84,-333
10:52:23.404,,-136,-23,1032,2100,-1050,-1470,265,82,-315
10:52:23.423,,-132,-23,1025,2310,420,-1680,282,78,-304
10:52:23.442,,-131,-31,1009,980,2380,-1960,280,85,-291
10:52:23.461,,-132,-51,997,-1610,3570,-2030,277,76,-289
10:52:23.479,,-137,-67,994,-3850,3010,-1610,274,78,-282
10:52:23.498,,-147,-64,1003,-4480,910,0,273,67,-265
10:52:23.517,,-152,-45,1018,-3570,-1960,2100,283,51,-264
10:52:23.536,,-146,-18,1040,-1750,-4270,3360,297,48,-264
10:52:23.555,,-133,6,1059,70,-4970,3220,301,34,-273
10:52:23.573,,-119,15,1068,-280,-3920,1820,294,36,-298
10:52:23.592,,-111,-3,1066,-2380,-1750,-210,291,39,-304
10:52:23.611,,-105,-34,1058,-3780,210,-1820,289,48,-313
10:52:23.630,,-104,-52,1055,-3710,1330,-2520,289,48,-312
10:52:23.648,,-103,-67,1046,-3920,1120,-2240,298,54,-315
10:52:23.667,,-106,-68,1044,-3290,210,-1330,291,52,-304
10:52:23.686,,-117,-52,1044,-1120,-490,-280,289,49,-316
10:52:23.705,,-121,-30,1045,420,-980,-280,294,48,-313
10:52:23.723,,-131,-19,1045,-210,-630,-1120,291,58,-318
10:52:23.742,,-143,-27,1046,-1470,-420,-1960,298,57,-322
10:52:23.761,,-149,-35,1049,-1820,-910,-2030,300,48,-318
10:52:23.780,,-145,-45,1058,-1260,-1890,-1400,301,49,-328
10:52:23.799,,-133,-46,1073,0,-2590,-840,313,57,-313
10:52:23.817,,-118,-40,1077,1260,-2240,-770,313,54,-327
10:52:23.836,,-107,-35,1070,490,-770,-1260,315,57,-330
10:52:23.855,,-113,-44,1063,-1890,1260,-1610,330,64,-333
10:52:23.874,,-125,-54,1062,-3290,2380,-1540,334,67,-318
10:52:23.892,,-137,-52,1060,-2520,1890,-1400,334,67,-318
10:52:23.911,,-139,-41,1057,-560,280,-1120,352,63,-336
10:52:23.930,,-133,-24,1055,1120,-1120,-770,361,64,-346
10:52:23.949,,-124,-14,1057,1470,-1330,-840,352,79,-355
10:52:23.967,,-121,-10,1051,-350,-420,-2100,360,75,-372
10:52:23.986,,-131,-25,1050,-3150,770,-3640,351,85,-373
10:52:24.005,,-138,-50,1052,-5740,420,-4830,348,90,-370
10:52:24.024,,-148,-71,1058,-6300,-1610,-4970,346,96,-372
10:52:24.043,,-151,-78,1071,-4130,-4620,-3920,342,102,-376
10:52:24.061,,-146,-61,1086,-630,-7000,-1890,334,109,-384
10:52:24.080,,-131,-41,1092,1750,-7210,-420,331,111,-375
10:52:24.099,,-121,-23,1086,1890,-4690,-980,325,100,-369
10:52:24.118,,-118,-31,1076,-1470,-700,-3360,330,105,-366
10:52:24.136,,-129,-69,1071,-6230,1960,-5880,324,106,-363
10:52:24.155,,-151,-106,1075,-6930,1890,-5950,319,106,-355
10:52:24.174,,-156,-104,1077,-3150,-910,-3850,316,105,-351
10:52:24.193,,-147,-70,1078,1260,-3570,-1050,324,109,-363
10:52:24.211,,-130,-39,1081,3360,-3920,700,319,103,-346
10:52:24.230,,-119,-24,1078,2870,-1750,140,319,105,-346
10:52:24.249,,-115,-40,1059,980,1680,-1680,330,94,-330
10:52:24.268,,-119,-64,1037,-1120,4480,-3360,331,84,-331
10:52:24.287,,-129,-86,1015,-2660,5110,-3360,331,82,-345
10:52:24.305,,-135,-93,1003,-2800,3220,-1680,331,85,-339
10:52:24.324,,-133,-82,1004,-1050,0,70,318,87,-334
10:52:24.343,,-133,-55,1014,1610,-2660,1120,325,96,-328
10:52:24.362,,-134,-31,1024,3220,-3920,1540,325,79,-333
10:52:24.372,>gest8_up,,,,,,,,,
10:52:24.380,,-134,-17,1026,2870,-3570,980,319,79,-345
10:52:24.399,,-131,-26,1030,1680,-2310,-280,331,82,-348
10:52:24.418,,-132,-44,1024,420,-840,-1190,321,79,-349
10:52:24.437,,-131,-66,1021,-910,-280,-1470,310,84,-339
10:52:24.455,,-134,-80,1030,-1190,-910,-490,304,84,-322
10:52:24.474,,-130,-75,1040,-280,-2380,980,310,78,-300
10:52:24.493,,-127,-54,1049,1120,-3500,2590,313,75,-297
10:52:24.512,,-125,-33,1058,1610,-3640,3640,312,76,-300
10:52:24.531,,-125,-25,1064,700,-3080,3570,322,73,-310
10:52:24.549,,-125,-29,1069,490,-2380,2940,327,70,-321
10:52:24.568,,-117,-31,1071,1190,-1820,2520,319,79,-339
10:52:24.587,,-109,-40,1064,1330,-840,2590,315,78,-333
10:52:24.606,,-102,-41,1052,1610,350,3150,298,88,-325
10:52:24.624,,-97,-37,1041,700,1260,3430,285,90,-319
10:52:24.643,,-99,-39,1035,-1610,1330,3150,297,88,-306
10:52:24.662,,-109,-41,1034,-2800,350,3010,289,91,-294
10:52:24.681,,-109,-41,1034,-2800,350,3010,307,90,-309
10:52:24.699,,-116,-34,1034,-1680,-1820,3010,313,85,-313
10:52:24.718,,-117,-23,1037,70,-4270,2870,316,90,-330
10:52:24.737,,-108,-20,1038,840,-6160,3010,318,91,-345
10:52:24.756,,-92,-20,1039,280,-7070,3220,312,87,-348
10:52:24.774,,-89,-26,1026,-1260,-6860,2730,297,99,-345
10:52:24.793,,-90,-33,1021,-3080,-6510,1610,297,99,-345
10:52:24.812,,-100,-45,1021,-5250,-7000,490,285,90,-342
10:52:24.831,,-108,-56,1027,-6510,-8960,280,283,91,-324
10:52:24.850,,-109,-56,1042,-5670,-11550,1400,297,88,-313
10:52:24.868,,-111,-42,1050,-3710,-13860,3080,301,90,-316
10:52:24.887,,-106,-24,1060,-2100,-15120,4410,295,88,-325
10:52:24.906,,-98,-14,1081,-2030,-15260,4830,306,84,-322
10:52:24.925,,-94,-15,1097,-3150,-14420,4200,307,85,-327
10:52:24.943,,-95,-35,1110,-4830,-13510,3360,313,85,-315
10:52:24.962,,-113,-64,1140,-5460,-13860,3150,316,70,-310
10:52:24.981,,-122,-78,1198,-2800,-16730,4410,316,72,-325
10:52:25.000,,-133,-60,1287,210,-20440,8540,318,73,-327
10:52:25.018,,-137,-54,1438,6440,-24150,15750,316,70,-324
10:52:25.037,,-129,14,1636,21210,-24360,24010,312,78,-331
10:52:25.056,,-98,98,1780,35350,-18970,28840,322,64,-328
10:52:25.075,,-26,108,1839,40600,-6860,27370,315,63,-336
10:52:25.093,,18,58,1872,42000,16030,23170,307,73,-333
10:52:25.112,,32,1,1880,46830,42280,19740,306,70,-333
10:52:25.131,,24,-42,1871,57540,66150,18130,303,81,-328
10:52:25.150,,29,-64,1793,74410,86590,17010,294,94,-343
10:52:25.169,,17,-6,1656,90230,104510,16310,285,108,-340
10:52:25.187,,27,30,1501,95830,119770,14280,262,120,-343
10:52:25.206,,-2,8,1293,92190,135450,13370,258,139,-343
10:52:25.225,,-34,-17,1071,81900,145320,11620,250,150,-333
10:52:25.244,,-46,-125,891,78190,148610,11690,235,169,-318
10:52:25.262,,-116,-150,732,92260,148750,14140,220,183,-295
10:52:25.281,,-143,-111,558,107450,141820,13230,205,193,-294
10:52:25.300,,-151,-24,404,113190,131460,11970,205,195,-279
10:52:25.319,,-156,80,291,101360,120750,11550,196,204,-265
10:52:25.337,,-195,140,209,74480,110810,13510,195,211,-265
10:52:25.356,,-237,123,132,48790,97020,16520,187,216,-274
10:52:25.375,,-267,152,90,37170,81060,18480,196,223,-268
10:52:25.394,,-307,222,68,35350,64960,19950,190,223,-282
10:52:25.413,,-333,296,33,33740,48510,20370,177,234,-271
10:52:25.431,,-358,397,20,27160,32970,16800,177,234,-277
10:52:25.450,,-367,445,11,11480,18200,10290,174,243,-279
10:52:25.469,,-392,480,45,-7700,5180,3150,181,241,-270
10:52:25.488,,-414,460,63,-24360,-7700,-2730,175,241,-277
10:52:25.506,,-433,424,76,-39480,-20790,-10500,192,234,-273
10:52:25.525,,-478,417,151,-47740,-33950,-16730,184,231,-267
10:52:25.544,,-473,356,200,-55930,-48510,-20650,202,222,-286
10:52:25.563,,-456,318,246,-64680,-61880,-25200,199,214,-276
10:52:25.581,,-427,257,293,-76230,-72590,-28700,202,216,-268
10:52:25.600,,-387,197,403,-89460,-81130,-32690,213,213,-279
10:52:25.619,,-364,117,545,-100730,-87220,-36750,225,193,-274
10:52:25.638,,-306,-15,671,-101640,-94570,-41440,232,192,-271
10:52:25.657,,-255,-58,767,-91280,-99610,-48720,238,178,-283
10:52:25.675,,-276,-40,890,-79240,-101430,-51870,246,171,-283
10:52:25.694,,-300,-71,1060,-72940,-104300,-49840,246,171,-283
10:52:25.713,,-284,-81,1237,-67060,-108430,-46900,271,160,-286
10:52:25.732,,-230,-82,1396,-57470,-111300,-41440,271,150,-292
10:52:25.750,,-199,-32,1481,-47810,-106470,-38150,280,132,-292
10:52:25.769,,-188,27,1521,-46620,-98560,-36610,286,132,-303
10:52:25.788,,-160,3,1569,-51450,-88690,-32620,289,120,-298
10:52:25.807,,-133,-33,1588,-52710,-75390,-26670,291,109,-300
10:52:25.825,,-155,-32,1556,-51170,-63840,-20650,298,105,-297
10:52:25.844,,-144,-65,1512,-47390,-56070,-17220,304,97,-309
10:52:25.863,,-156,-67,1495,-36260,-48510,-14770,318,102,-310
10:52:25.882,,-161,-51,1480,-23800,-41720,-12180,304,93,-309
10:52:25.901,,-163,-37,1468,-13580,-34650,-9310,310,94,-310
10:52:25.919,,-147,-9,1444,-6370,-27370,-7420,309,85,-319
10:52:25.938,,-117,9,1395,-2660,-17710,-6510,298,88,-310
10:52:25.957,,-118,7,1342,-3360,-5810,-6090,304,88,-312
10:52:25.976,,-126,-39,1261,-6440,3990,-5740,309,88,-321
10:52:25.994,,-142,-85,1191,-5740,10640,-5110,321,85,-306
10:52:26.013,,-144,-110,1133,-1260,13370,-3290,310,85,-316
10:52:26.032,,-139,-107,1091,4060,12880,-490,307,94,-328
10:52:26.051,,-131,-95,1060,7560,11130,3010,307,91,-321
10:52:26.069,,-113,-80,1029,9310,9240,5600,315,99,-331
10:52:26.088,,-108,-52,1003,9100,8890,6790,312,94,-324
10:52:26.107,,-108,-38,988,6510,8680,6300,303,99,-337
10:52:26.126,,-114,-29,985,3640,8330,4760,307,103,-328
10:52:26.144,,-128,-24,983,1750,7490,3430,303,100,-327
10:52:26.163,,-144,-12,986,840,5880,2520,304,97,-322
10:52:26.182,,-153,-5,1010,560,4130,1890,310,94,-319
10:52:26.201,,-157,3,1030,770,2660,910,312,91,-330
10:52:26.220,,-157,6,1031,980,1750,-840,321,100,-331
10:52:26.238,,-162,9,1028,140,1540,-2870,315,100,-328
10:52:26.257,,-166,-1,1037,-2520,1400,-4130,318,99,-328
10:52:26.276,,-169,-23,1048,-5250,560,-4690,312,105,-327
10:52:26.295,,-173,-43,1061,-5600,-910,-4550,321,102,-328
10:52:26.313,,-170,-52,1082,-2870,-2800,-3850,313,105,-325
10:52:26.332,,-164,-40,1086,1050,-4060,-3150,310,103,-316
10:52:26.351,,-152,-28,1082,2450,-3920,-3010,304,103,-315
10:52:26.370,,-144,-31,1079,1610,-2450,-3080,312,96,-307
10:52:26.389,,-148,-41,1074,910,-280,-2870,309,90,-303
10:52:26.407,,-157,-48,1061,0,1400,-2940,307,91,-303
10:52:26.426,,-164,-60,1045,-980,1890,-2870,310,84,-291
10:52:26.445,,-168,-71,1040,-280,1330,-2380,318,82,-270
10:52:26.464,,-168,-71,1040,-280,1330,-2380,327,76,-286
10:52:26.482,,-168,-67,1045,1890,350,-1540,343,63,-295
10:52:26.501,,-169,-51,1044,3430,-490,-560,346,63,-304
10:52:26.520,,-162,-39,1041,3570,-770,560,336,61,-316
10:52:26.539,,-161,-33,1038,2450,-70,1540,343,69,-321
10:52:26.557,,-159,-30,1037,1400,980,1890,334,72,-322
10:52:26.576,,-158,-31,1026,210,2030,1820,325,66,-331
10:52:26.595,,-158,-35,1019,-1470,2590,1610,325,66,-331
10:52:26.614,,-162,-44,1017,-3010,2170,1960,327,78,-325
10:52:26.633,,-161,-44,1031,-2590,770,2660,322,90,-324
10:52:26.651,,-158,-33,1043,-980,-910,3500,313,94,-328
10:52:26.670,,-151,-19,1048,1190,-2170,3850,319,97,-324
10:52:26.689,,-141,-9,1052,3010,-2100,3570,313,97,-319
10:52:26.708,,-134,-4,1040,3920,-490,3010,324,93,-324
10:52:26.726,,-129,-9,1017,3010,1750,2030,322,94,-330
10:52:26.745,,-127,-27,1008,770,3570,1260,318,99,-333
10:52:26.764,,-133,-40,1005,-980,4270,1190,313,96,-334
10:52:26.783,,-132,-50,993,-1260,3570,1610,316,100,-334
10:52:26.801,,-132,-44,989,-490,2380,2240,318,109,-337
10:52:26.820,,-136,-35,991,420,1470,3010,315,108,-331
10:52:26.839,,-141,-20,1002,700,910,3360,304,109,-337
10:52:26.858,,-147,-12,1011,140,700,2870,307,99,-339
10:52:26.876,,-152,-5,1017,-350,770,1960,310,111,-349
10:52:26.895,,-149,-6,1024,-770,630,1120,312,106,-337
10:52:26.914,,-150,-9,1034,-840,630,420,310,106,-346
10:52:26.933,,-151,-14,1033,-630,490,-70,315,114,-339
10:52:26.952,,-147,-14,1036,-210,280,-210,304,106,-343
10:52:26.970,,-145,-17,1035,-490,0,-490,312,115,-340
10:52:26.989,,-138,-25,1033,-910,-280,-1260,309,106,-342
10:52:27.008,,-135,-26,1040,-770,-420,-2030,315,100,-342
10:52:27.027,,-139,-22,1044,-490,-280,-2450,324,108,-349
10:52:27.045,,-146,-20,1039,-140,-70,-2100,324,99,-351
10:52:27.064,,-156,-13,1034,-140,490,-1890,315,105,-355
10:52:27.083,,-167,-15,1033,-1400,840,-2310,316,105,-346
10:52:27.102,,-173,-26,1038,-3010,350,-2870,307,103,-346
10:52:27.120,,-171,-38,1044,-3430,-1190,-3360,316,97,-342
10:52:27.139,,-166,-39,1051,-2800,-2590,-3430,318,99,-345
10:52:27.158,,-166,-40,1056,-2730,-3360,-2800,313,96,-343
10:52:27.177,,-166,-37,1061,-3150,-3990,-1960,313,102,-340
10:52:27.195,,-168,-38,1066,-3500,-4480,-1260,312,96,-343
10:52:27.214,,-165,-37,1068,-3430,-5040,-910,298,99,-334
10:52:27.233,,-159,-34,1073,-3150,-4900,-910,298,100,-334
10:52:27.252,,-154,-30,1083,-3360,-3990,-1330,309,99,-325
10:52:27.271,,-154,-26,1087,-3710,-2800,-2170,306,91,-321
10:52:27.289,,-161,-26,1090,-3710,-1750,-2520,304,91,-312
10:52:27.308,,-167,-27,1088,-3850,-910,-2380,304,94,-312
10:52:27.327,,-167,-26,1073,-5320,-70,-2240,309,88,-304
10:52:27.346,,-160,-39,1060,-7980,1190,-2380,307,85,-301
10:52:27.364,,-161,-53,1051,-9940,2450,-2730,312,76,-289
10:52:27.383,,-168,-76,1041,-9800,2240,-3150,304,85,-301
10:52:27.402,,-173,-84,1050,-5810,280,-3150,298,84,-297
10:52:27.421,,-180,-57,1069,-1190,-2030,-2380,298,85,-288
10:52:27.439,,-175,-45,1074,140,-4340,-1470,292,82,-291
10:52:27.458,,-160,-45,1082,1260,-5460,-910,295,79,-286
10:52:27.477,,-146,-40,1082,3990,-4480,-630,306,88,-288
10:52:27.496,,-136,-38,1069,5880,-1680,-840,295,88,-294
10:52:27.515,,-132,-50,1041,5040,1890,-1750,295,88,-294
10:52:27.533,,-137,-67,1013,3010,5040,-2870,297,90,-289
10:52:27.552,,-149,-83,987,420,6440,-3010,295,87,-291
10:52:27.571,,-157,-96,977,-2310,5250,-2380,289,91,-295
10:52:27.590,,-165,-98,987,-2800,1960,-1400,294,81,-291
10:52:27.608,,-170,-73,997,-1330,-2030,-420,298,100,-292
10:52:27.627,,-171,-54,1009,-140,-5320,700,297,87,-301
10:52:27.646,,-169,-41,1028,560,-6930,1540,294,93,-282
10:52:27.665,,-168,-34,1047,1890,-6650,2940,303,85,-280
10:52:27.683,,-160,-22,1047,2870,-4970,3430,306,84,-286
10:52:27.702,,-148,-17,1044,1330,-2310,1680,309,88,-294
10:52:27.721,,-144,-33,1043,-1890,420,-1050,315,85,-297
10:52:27.740,,-147,-56,1037,-3360,2310,-2380,313,88,-295
10:52:27.759,,-153,-63,1027,-3220,2660,-2240,307,88,-301
10:52:27.777,,-163,-62,1024,-3290,1820,-1400,306,90,-283
10:52:27.796,,-175,-59,1033,-2660,-70,-140,310,82,-288
10:52:27.815,,-175,-46,1040,-1120,-2660,560,309,84,-301
10:52:27.834,,-175,-37,1044,420,-4270,770,312,87,-306
10:52:27.852,,-162,-27,1052,1750,-4830,770,309,88,-303
10:52:27.871,,-150,-24,1058,1750,-3920,490,312,91,-306
10:52:27.890,,-138,-35,1059,140,-2520,-490,312,93,-321
10:52:27.909,,-137,-55,1058,-2030,-1190,-1960,312,91,-321
10:52:27.927,,-139,-68,1063,-2870,-840,-2590,303,84,-322
10:52:27.946,,-145,-74,1065,-1820,-1540,-2030,309,87,-324
10:52:27.965,,-150,-57,1064,280,-2520,-770,310,90,-328
10:52:27.984,,-154,-40,1064,1890,-2940,630,312,90,-327
10:52:28.003,,-157,-27,1066,3290,-2730,1470,304,99,-324
10:52:28.021,,-154,-22,1060,3990,-1820,1470,297,90,-327
10:52:28.040,,-146,-25,1045,2590,-280,280,303,85,-324
10:52:28.059,,-139,-45,1038,-1400,840,-1260,300,91,-313
10:52:28.078,,-139,-71,1042,-4410,490,-1610,307,87,-315
10:52:28.096,,-143,-74,1054,-3850,-1050,-350,306,81,-315
10:52:28.115,,-148,-58,1059,-2100,-3010,1190,318,84,-306
10:52:28.134,,-150,-26,1071,-490,-4340,2030,313,90,-313
10:52:28.153,,-138,-18,1076,70,-5390,2520,306,87,-328
10:52:28.171,,-134,-12,1076,280,-4620,1820,313,85,-315
10:52:28.190,,-132,-14,1070,-420,-2940,770,310,82,-309
10:52:28.209,,-131,-27,1069,-1750,-1120,-420,318,78,-301
10:52:28.228,,-131,-45,1067,-2240,-210,-1400,304,72,-310
10:52:28.246,,-131,-45,1067,-2240,-210,-1400,309,81,-306
10:52:28.265,,-129,-48,1067,-1120,-210,-1400,310,82,-307
10:52:28.284,,-129,-45,1062,-140,-560,-700,304,81,-304
10:52:28.303,,-134,-35,1061,490,-560,420,313,70,-301
10:52:28.322,,-137,-27,1061,1330,-490,980,304,75,-304
10:52:28.340,,-132,-19,1051,2590,-420,350,309,66,-295
10:52:28.359,,-128,-17,1037,3080,210,-840,303,60,-282
10:52:28.378,,-127,-29,1019,1960,1190,-1750,303,67,-295
10:52:28.397,,-130,-48,1004,70,1680,-2380,306,72,-297
10:52:28.415,,-136,-62,999,-630,1260,-2310,300,73,-291
10:52:28.434,,-137,-64,1009,-630,-280,-1680,300,73,-291
10:52:28.453,,-140,-57,1019,210,-2170,-770,304,75,-292
10:52:28.472,,-139,-38,1025,2380,-3290,280,295,70,-292
10:52:28.490,,-134,-11,1033,3710,-2800,840,298,67,-291
10:52:28.509,,-134,-5,1029,3080,-840,350,298,73,-297
10:52:28.528,,-129,-13,1017,1960,1400,-840,294,76,-289
10:52:28.547,,-127,-33,1000,350,3360,-1960,288,82,-288
10:52:28.566,,-124,-64,988,-2030,3920,-3010,292,87,-283
10:52:28.584,,-126,-80,991,-3290,2800,-3500,298,84,-283
10:52:28.603,,-132,-78,997,-3150,490,-3010,310,82,-279
10:52:28.622,,-146,-62,1010,-2380,-2030,-1540,307,91,-306
10:52:28.641,,-159,-39,1026,-980,-3710,140,306,90,-306
10:52:28.659,,-163,-13,1038,490,-4410,700,292,91,-301
10:52:28.678,,-158,-5,1040,770,-3850,-420,297,85,-303
10:52:28.697,,-143,-16,1044,-70,-2310,-2660,288,97,-295
10:52:28.716,,-133,-45,1039,-1540,-70,-4270,291,93,-286
10:52:28.734,,-131,-72,1030,-3150,1680,-4410,294,90,-294
10:52:28.753,,-136,-90,1027,-3640,2030,-3290,294,94,-277
10:52:28.772,,-144,-88,1024,-2310,980,-1680,294,91,-289
10:52:28.791,,-145,-71,1019,-420,-560,-490,291,87,-276
10:52:28.809,,-147,-49,1019,420,-980,70,294,93,-277
10:52:28.828,,-150,-39,1024,-910,-280,-280,292,87,-280
10:52:28.847,,-159,-41,1029,-2800,210,-1120,288,96,-282
10:52:28.866,,-164,-54,1033,-3570,-140,-1540,288,99,-276
10:52:28.885,,-160,-61,1041,-3710,-1330,-1260,289,93,-270
10:52:28.903,,-155,-69,1054,-3640,-2520,-490,292,94,-261
10:52:28.922,,-149,-63,1068,-2310,-3430,210,295,96,-261
10:52:28.941,,-146,-49,1078,-910,-3850,630,291,99,-261
10:52:28.960,,-141,-45,1083,-490,-3710,840,295,91,-259
10:52:28.978,,-140,-41,1088,770,-2870,1260,295,94,-264
10:52:28.997,,-137,-28,1077,2380,-1120,1680,298,94,-262
10:52:29.016,,-130,-22,1054,2450,1120,840,300,76,-264
10:52:29.035,,-133,-31,1032,350,3570,-700,301,76,-271
10:52:29.053,,-139,-56,1016,-2520,4690,-1890,297,76,-280
10:52:29.072,,-145,-78,1008,-4410,3570,-2310,297,75,-288
10:52:29.091,,-151,-80,1016,-4130,700,-1470,310,78,-289
10:52:29.110,,-149,-63,1032,-3150,-2940,-280,310,82,-291
10:52:29.128,,-143,-42,1053,-2660,-5600,140,304,78,-298
10:52:29.147,,-140,-32,1071,-3640,-6510,-770,304,75,-297
10:52:29.166,,-139,-38,1086,-4970,-6440,-2380,304,79,-298
10:52:29.185,,-141,-53,1101,-5460,-5810,-3290,304,67,-297
10:52:29.204,,-138,-65,1112,-5460,-5460,-3640,315,81,-289
10:52:29.222,,-141,-74,1113,-3920,-4970,-3220,307,78,-295
10:52:29.241,,-138,-68,1116,-840,-4060,-1960,309,79,-304
10:52:29.260,,-139,-59,1108,1190,-2030,-630,300,79,-301
10:52:29.279,,-141,-55,1091,2590,700,-140,291,93,-304
10:52:29.297,,-136,-52,1065,3780,3570,-420,292,88,-291
10:52:29.316,,-134,-60,1035,2520,5740,-1190,291,96,-295
10:52:29.335,,-140,-83,1008,-350,6440,-1260,288,97,-283
10:52:29.354,,-150,-96,996,-1750,4970,70,288,97,-283
10:52:29.372,,-154,-90,1000,-1470,1820,1610,292,100,-273
10:52:29.391,,-148,-72,1012,-490,-1820,2590,286,94,-258
10:52:29.410,,-141,-43,1038,630,-4480,3010,285,105,-249
10:52:29.429,,-134,-20,1058,630,-5110,2660,306,87,-247
10:52:29.448,,-133,-18,1066,-140,-3850,1890,306,91,-247
10:52:29.466,,-130,-22,1069,0,-1470,1050,315,93,-243
10:52:29.485,,-123,-33,1049,560,1260,280,316,97,-262
10:52:29.504,,-116,-52,1024,-140,3920,-490,334,94,-267
10:52:29.523,,-115,-78,1003,-1960,5530,-980,345,97,-273
10:52:29.541,,-121,-96,991,-3710,5460,-630,364,99,-280
10:52:29.560,,-126,-100,993,-3990,3360,420,363,106,-288
10:52:29.579,,-131,-89,1008,-2800,560,1680,381,102,-297
10:52:29.598,,-137,-58,1021,-1470,-1540,2590,381,112,-297
10:52:29.616,,-142,-38,1036,-2030,-2590,2590,391,114,-310
10:52:29.635,,-148,-38,1048,-4060,-2730,1400,388,112,-304
10:52:29.654,,-150,-51,1061,-5390,-2800,-210,391,132,-306
10:52:29.673,,-146,-68,1067,-4900,-3220,-980,400,132,-304
10:52:29.691,,-142,-69,1070,-2730,-3640,-350,402,124,-315
10:52:29.710,,-134,-63,1070,-630,-3430,700,403,127,-312
10:52:29.729,,-127,-54,1069,70,-2100,630,414,126,-304
10:52:29.748,,-129,-56,1066,-770,70,-350,418,133,-312
10:52:29.767,,-133,-65,1058,-2030,1890,-1470,409,136,-313
10:52:29.785,,-144,-74,1050,-3290,2940,-2310,414,142,-312
10:52:29.804,,-152,-84,1046,-3920,2380,-2870,415,151,-318
10:52:29.823,,-156,-84,1051,-3360,350,-3080,417,151,-318
10:52:29.842,,-160,-81,1061,-2380,-1960,-2730,421,147,-309
10:52:29.860,,-158,-76,1070,-1190,-3850,-2030,421,159,-312
10:52:29.879,,-156,-64,1076,490,-4410,-1400,411,154,-316
10:52:29.898,,-148,-58,1079,1050,-3570,-1540,415,157,-315
10:52:29.917,,-147,-61,1076,-210,-1750,-2380,414,157,-316
10:52:29.935,,-150,-78,1074,-1820,140,-3150,411,154,-306
10:52:29.954,,-162,-92,1069,-2030,1260,-3220,417,151,-312
10:52:29.973,,-167,-94,1063,-210,840,-2380,418,141,-303
10:52:29.992,,-165,-79,1062,1540,-280,-1330,418,150,-306
10:52:30.010,,-161,-73,1057,1260,-1190,-980,421,145,-301
10:52:30.029,,-161,-73,1057,1260,-1190,-980,417,154,-306
10:52:30.048,,-158,-80,1061,280,-1960,-1050,408,154,-303
10:52:30.067,,-157,-84,1072,630,-2520,-1120,405,150,-303
10:52:30.086,,-153,-82,1077,1680,-2800,-700,415,150,-295
10:52:30.104,,-145,-73,1079,2100,-2590,70,417,142,-289
10:52:30.123,,-137,-69,1071,1610,-1540,700,430,130,-298
10:52:30.142,,-133,-67,1058,630,-70,1050,457,127,-307
10:52:30.161,,-136,-69,1047,-490,1400,1120,451,130,-333
10:52:30.179,,-141,-73,1033,-1960,1820,1260,454,138,-343
10:52:30.198,,-144,-78,1032,-2450,840,1540,438,133,-357
10:52:30.217,,-140,-72,1038,-2030,-700,2030,433,135,-369
10:52:30.236,,-135,-65,1040,-1540,-2100,2590,426,145,-375
10:52:30.254,,-131,-57,1048,-770,-2800,3080,426,145,-375
10:52:30.273,,-129,-47,1052,0,-2800,3360,420,148,-373
10:52:30.292,,-122,-40,1052,70,-2380,3010,417,154,-370
10:52:30.311,,-114,-41,1050,-1120,-1470,1890,409,153,-375
10:52:30.329,,-112,-53,1049,-2660,-420,630,403,153,-378
10:52:30.348,,-115,-66,1048,-3290,0,-70,391,160,-372
10:52:30.367,,-119,-69,1045,-2450,-350,0,390,157,-367
10:52:30.386,,-118,-64,1047,-1050,-1120,770,384,157,-375
10:52:30.405,,-117,-54,1048,140,-1610,1470,373,159,-384
10:52:30.423,,-115,-44,1043,980,-1680,1400,372,160,-378
10:52:30.442,,-115,-40,1041,630,-1050,490,366,159,-376
10:52:30.461,,-124,-47,1042,-350,-350,-420,363,159,-373
10:52:30.480,,-127,-57,1044,-420,-490,-700,370,165,-364
10:52:30.498,,-124,-58,1042,210,-560,-630,366,151,-366
10:52:30.517,,-120,-60,1039,280,-700,-420,355,162,-366
10:52:30.536,,-118,-62,1034,210,-630,-350,361,156,-340
10:52:30.555,,-118,-61,1033,0,-420,-630,363,153,-348
10:52:30.573,,-123,-63,1037,-350,-420,-840,360,157,-339
10:52:30.592,,-126,-65,1041,-280,-770,-700,357,148,-337
10:52:30.611,,-126,-63,1042,770,-1260,-630,366,148,-333
10:52:30.630,,-124,-56,1041,1750,-1470,-350,364,147,-328
10:52:30.649,,-122,-51,1038,1820,-1120,0,375,150,-328
10:52:30.667,,-122,-52,1036,1260,-140,210,367,150,-315
10:52:30.686,,-123,-51,1028,420,840,-70,372,144,-310
10:52:30.705,,-129,-59,1026,-700,1330,-560,379,147,-316
10:52:30.724,,-136,-64,1027,-1260,1050,-770,382,151,-319
10:52:30.742,,-138,-63,1023,-560,0,-700,378,153,-319
10:52:30.761,,-136,-52,1023,350,-1190,-490,388,153,-307
10:52:30.780,,-130,-45,1030,210,-1820,-490,390,151,-310
10:52:30.799,,-128,-42,1033,-420,-1960,-1050,390,153,-301
10:52:30.817,,-127,-46,1037,-560,-1680,-2030,391,151,-304
10:52:30.836,,-132,-49,1037,-700,-1540,-2590,394,154,-313
10:52:30.855,,-132,-59,1036,-840,-1610,-2730,396,162,-303
10:52:30.874,,-127,-62,1043,-420,-1890,-2940,388,154,-301
10:52:30.893,,-122,-64,1046,70,-1890,-3290,394,153,-286
10:52:30.911,,-119,-66,1045,280,-1540,-3500,405,139,-273
10:52:30.930,,-124,-68,1046,0,-700,-3640,415,135,-271
10:52:30.949,,-131,-73,1037,-490,-70,-3640,435,142,-282
10:52:30.968,,-139,-76,1036,-490,-210,-3360,435,141,-300
10:52:30.986,,-142,-78,1034,70,-840,-3220,436,139,-303
10:52:31.005,,-142,-77,1033,560,-1540,-3010,432,145,-316
10:52:31.024,,-143,-72,1038,560,-1960,-2660,430,141,-307
10:52:31.043,,-148,-71,1040,700,-2240,-2240,426,148,-325
10:52:31.061,,-153,-67,1042,1680,-2520,-1820,426,157,-324
10:52:31.080,,-158,-61,1041,3150,-2730,-1190,415,156,-328
10:52:31.099,,-156,-54,1040,3990,-2870,-560,427,157,-325
10:52:31.118,,-147,-53,1039,4060,-2660,-140,418,160,-312
10:52:31.136,,-139,-55,1038,3290,-1680,-140,409,163,-316
10:52:31.155,,-134,-65,1024,1750,-420,-350,415,157,-315
10:52:31.174,,-132,-80,1015,1050,210,140,415,157,-315
10:52:31.193,,-132,-80,1009,980,350,1120,412,159,-312
10:52:31.212,,-127,-77,1001,700,-280,2310,418,163,-321
10:52:31.230,,-118,-68,1001,280,-910,3290,415,171,-315
10:52:31.249,,-112,-61,1006,-630,-1120,3500,415,165,-310
10:52:31.268,,-108,-54,1006,-1470,-1050,3150,414,165,-303
10:52:31.287,,-109,-49,1011,-1610,-630,2450,415,165,-309
10:52:31.305,,-114,-49,1021,-2100,-420,1890,412,166,-315
10:52:31.324,,-114,-56,1024,-1960,-840,1470,412,171,-312
10:52:31.343,,-108,-54,1022,-910,-1190,1120,426,172,-306
10:52:31.362,,-105,-51,1021,-980,-980,700,411,163,-306
10:52:31.380,,-105,-60,1031,-1820,-350,140,406,163,-303
10:52:31.399,,-108,-61,1026,-2030,140,-70,408,165,-301
10:52:31.418,,-116,-69,1020,-1400,-210,70,408,165,-300
10:52:31.437,,-119,-65,1026,-630,-980,140,406,162,-310
10:52:31.456,,-125,-58,1042,210,-2100,70,408,166,-303
10:52:31.474,,-125,-39,1051,1330,-3080,-420,412,166,-304
10:52:31.493,,-125,-31,1051,1400,-3570,-1190,414,172,-304
10:52:31.512,,-124,-23,1045,280,-3500,-1960,414,162,-307
10:52:31.531,,-118,-34,1036,-770,-3290,-2660,417,160,-307
10:52:31.549,,-114,-46,1048,-1050,-2590,-2730,418,163,-316
10:52:31.568,,-118,-49,1066,-1540,-1260,-2800,418,165,-309
10:52:31.587,,-129,-63,1064,-2170,-420,-2940,418,166,-301
10:52:31.606,,-131,-70,1068,-1890,-280,-2730,406,157,-306
10:52:31.624,,-130,-69,1066,-1400,-350,-2590,408,168,-304
10:52:31.643,,-127,-68,1052,-1260,-700,-2100,412,172,-300
10:52:31.662,,-125,-69,1046,-1120,-980,-1330,414,174,-297
10:52:31.681,,-125,-62,1050,-1260,-1050,-770,420,171,-303
10:52:31.700,,-128,-62,1055,-1190,-840,-490,424,168,-295
10:52:31.718,,-128,-57,1060,-280,-700,-630,424,163,-295
10:52:31.737,,-125,-56,1050,70,-350,-980,426,165,-297
10:52:31.756,,-120,-61,1043,-560,-210,-1330,429,156,-297
10:52:31.775,,-121,-72,1038,-1050,-70,-1470,421,165,-309
10:52:31.793,,-124,-71,1042,-840,-70,-1330,430,157,-298
10:52:31.812,,-124,-71,1042,-840,-70,-1330,423,160,-307
10:52:31.831,,-125,-72,1046,-770,-280,-910,426,153,-298
10:52:31.850,,-127,-69,1046,-700,-420,-560,418,156,-289
10:52:31.868,,-128,-67,1046,-350,-700,-420,417,159,-304
10:52:31.887,,-133,-65,1045,-210,-840,-280,418,157,-309
10:52:31.906,,-132,-58,1048,280,-910,0,426,163,-310
10:52:31.925,,-133,-59,1048,980,-630,350,417,156,-309
10:52:31.944,,-131,-57,1047,1400,-420,140,426,145,-300
10:52:31.962,,-128,-62,1044,1190,-280,-420,432,157,-309
10:52:31.981,,-126,-72,1041,630,-630,-840,414,165,-312
10:52:32.000,,-122,-80,1039,350,-1190,-700,415,159,-313
10:52:32.019,,-117,-74,1044,350,-1400,-350,427,157,-309
10:52:32.037,,-118,-69,1047,0,-1400,70,417,159,-300
10:52:32.056,,-125,-61,1047,-70,-1260,280,412,160,-300
10:52:32.075,,-131,-52,1042,-70,-1120,0,412,160,-300
10:52:32.094,,-132,-53,1042,-630,-1260,-420,411,156,-306
10:52:32.112,,-131,-59,1053,-1050,-1330,-770,412,156,-309
10:52:32.131,,-127,-64,1062,-1190,-1680,-1120,411,153,-300
10:52:32.150,,-125,-71,1057,-1190,-1890,-1260,412,159,-303
10:52:32.169,,-123,-71,1060,-1260,-1960,-840,418,154,-307
10:52:32.187,,-128,-77,1061,-1540,-1890,-210,412,153,-304
10:52:32.206,,-131,-76,1068,-1050,-1820,280,417,154,-315
10:52:32.225,,-130,-70,1068,-280,-1750,210,415,151,-309
10:52:32.244,,-126,-65,1064,-280,-1400,70,415,160,-313
10:52:32.263,,-123,-66,1060,-770,-630,0,409,141,-318
10:52:32.281,,-123,-70,1061,-1260,280,-210,409,148,-312
10:52:32.300,,-124,-73,1063,-770,700,-280,411,154,-312
10:52:32.319,,-127,-71,1058,210,910,-70,414,150,-307
10:52:32.338,,-128,-69,1044,910,910,140,414,148,-313
10:52:32.356,,-126,-70,1040,840,910,280,402,154,-324
10:52:32.375,,-122,-76,1039,-70,770,280,397,150,-321
10:52:32.394,,-118,-85,1043,-980,630,280,391,154,-322
10:52:32.413,,-108,-103,1055,-1470,560,840,391,162,-312
10:52:32.431,,-94,-126,1071,-1120,1120,2450,378,165,-321
10:52:32.450,,-80,-123,1088,-1400,3010,5110,370,151,-307
10:52:32.469,,-62,-93,1122,-11410,7350,8960,373,151,-310
10:52:32.488,,-69,-99,1153,-34300,14700,15330,373,150,-294
10:52:32.507,,-61,-191,1170,-60200,21490,24710,372,153,-285
10:52:32.525,,-100,-234,1163,-79170,29260,34020,385,162,-276
10:52:32.544,,-135,-310,1103,-81550,31360,42000,396,168,-264
10:52:32.563,,-150,-328,1031,-67760,30030,46970,408,177,-258
10:52:32.582,,-172,-259,998,-43680,30660,47950,405,175,-262
10:52:32.600,,-205,-153,996,-22680,31010,42000,429,180,-250
10:52:32.619,,-236,-63,1007,-7280,28420,33810,420,196,-265
10:52:32.638,,-261,-15,1000,3360,24920,25760,426,211,-261
10:52:32.657,,-277,10,983,8120,20370,18410,412,219,-265
10:52:32.675,,-284,12,971,9660,15330,11200,417,211,-262
10:52:32.694,,-290,2,963,11620,10360,4550,408,207,-264
10:52:32.713,,-292,3,949,14210,5530,-2100,403,208,-259
10:52:32.732,,-287,-15,936,15120,1050,-8540,417,205,-258
10:52:32.750,,-276,-23,932,14490,-2800,-14140,418,216,-259
10:52:32.769,,-264,-50,930,10220,-5460,-18270,423,220,-261
10:52:32.788,,-243,-123,938,3850,-7630,-20580,414,213,-265
10:52:32.807,,-227,-190,947,210,-9310,-21210,417,202,-262
10:52:32.826,,-222,-231,957,-280,-10150,-20090,420,195,-265
10:52:32.844,,-219,-247,967,-980,-10710,-18200,418,198,-259
10:52:32.863,,-219,-247,984,-2660,-10570,-15820,426,199,-259
10:52:32.882,,-221,-245,1001,-4270,-10010,-13790,432,196,-253
10:52:32.901,,-223,-239,1017,-4480,-9100,-12250,426,198,-258
10:52:32.919,,-225,-229,1020,-3990,-8120,-11060,426,189,-258
10:52:32.938,,-229,-223,1029,-3570,-7000,-10010,424,189,-264
10:52:32.957,,-234,-223,1045,-3710,-6020,-9100,421,186,-268
10:52:32.976,,-235,-231,1057,-1400,-5530,-8050,421,186,-268
10:52:32.994,,-235,-207,1068,2310,-5110,-6790,420,189,-261
10:52:33.013,,-234,-180,1067,3080,-4340,-4900,429,199,-262
10:52:33.032,,-233,-170,1063,0,-3360,-3150,433,196,-262
10:52:33.051,,-236,-177,1059,-2450,-2520,-1890,430,198,-259
10:52:33.069,,-237,-178,1058,-1890,-2030,-1260,427,183,-264
10:52:33.088,,-237,-167,1053,0,-1960,-1120,421,186,-262
10:52:33.107,,-237,-166,1046,560,-2310,-910,421,186,-267
10:52:33.126,,-231,-172,1041,350,-3010,-560,426,201,-268
10:52:33.145,,-223,-176,1034,840,-3570,-140,430,198,-267
10:52:33.163,,-214,-177,1026,1470,-4060,280,421,184,-255
10:52:33.182,,-207,-176,1022,1400,-4270,630,417,184,-253
10:52:33.201,,-201,-182,1019,910,-4060,700,414,186,-259
10:52:33.220,,-200,-185,1019,770,-3710,560,412,198,-253
10:52:33.238,,-197,-187,1022,700,-3500,420,423,190,-240
10:52:33.257,,-196,-183,1023,910,-3290,350,418,193,-244
10:52:33.276,,-193,-182,1023,630,-3220,350,412,192,-244
10:52:33.295,,-194,-179,1025,630,-3010,280,415,180,-237
10:52:33.313,,-193,-174,1026,700,-2590,0,412,169,-232
10:52:33.332,,-195,-177,1025,420,-2100,-420,424,171,-228
10:52:33.351,,-201,-180,1029,-140,-1890,-770,439,175,-232
10:52:33.370,,-208,-185,1032,-140,-1960,-840,444,174,-244
10:52:33.389,,-212,-182,1033,420,-2310,-770,447,174,-253
10:52:33.407,,-217,-179,1037,1540,-2870,-420,438,178,-265
10:52:33.426,,-218,-174,1040,3080,-3360,-140,439,180,-261
10:52:33.445,,-214,-171,1040,5460,-3780,210,436,178,-265
10:52:33.464,,-214,-165,1035,8050,-3710,490,438,183,-258
10:52:33.482,,-212,-163,1028,9730,-3500,420,435,186,-261
10:52:33.501,,-215,-151,1016,9520,-3220,-350,436,187,-267
10:52:33.520,,-214,-198,1003,13860,-4270,-420,432,181,-276
10:52:33.539,,-207,-189,1006,22960,-5740,-1120,421,183,-265
10:52:33.557,,-203,-139,1002,28420,-6720,-1400,421,178,-268
10:52:33.576,,-189,-136,998,26950,-7210,-980,423,186,-280
10:52:33.595,,-189,-136,998,26950,-7210,-980,417,189,-279
10:52:33.614,,-184,-111,1003,23310,-7070,-490,414,187,-292
10:52:33.632,,-169,-121,997,17710,-6510,-420,409,184,-285
10:52:33.651,,-172,-95,1001,10640,-4760,-1190,403,183,-297
10:52:33.670,,-168,-127,1005,1470,-3990,-70,405,189,-288
10:52:33.689,,-169,-154,1015,-2310,-3220,630,411,195,-286
10:52:33.708,,-169,-149,1021,-770,-2800,1330,406,187,-283
10:52:33.726,,-170,-125,1018,560,-2240,1540,409,187,-282
10:52:33.745,,-172,-117,1012,-980,-1610,1610,411,180,-279
10:52:33.764,,-173,-126,1016,-2800,-910,1260,408,189,-282
10:52:33.783,,-180,-131,1017,-3360,-420,770,414,175,-286
10:52:33.801,,-186,-133,1019,-3220,-560,560,411,186,-285
10:52:33.820,,-193,-140,1029,-3780,-1330,700,400,192,-276
10:52:33.839,,-196,-144,1043,-3640,-2520,1120,405,192,-265
10:52:33.858,,-196,-139,1055,-2380,-3640,1750,402,184,-270
10:52:33.876,,-191,-129,1066,-980,-4060,2240,394,184,-265
10:52:33.895,,-186,-122,1072,-70,-3500,2660,394,184,-265
10:52:33.914,,-184,-116,1070,350,-2030,2800,397,183,-261
10:52:33.933,,-183,-116,1066,350,-560,2380,399,186,-256
10:52:33.952,,-184,-124,1060,350,350,1540,396,190,-256
10:52:33.970,,-183,-131,1054,840,490,1120,402,187,-252
10:52:33.989,,-177,-138,1043,1820,350,1470,397,178,-241
10:52:34.008,,-174,-147,1035,2730,630,1960,394,168,-240
10:52:34.027,,-175,-149,1040,2940,1190,2590,397,175,-235
10:52:34.045,,-180,-159,1032,2450,1890,3360,387,180,-240
10:52:34.064,,-180,-181,1019,2450,2450,4130,397,180,-246
10:52:34.083,,-184,-204,1002,3640,2730,5180,396,183,-246
10:52:34.102,,-182,-222,1005,4830,2660,7070,393,180,-243
10:52:34.120,,-183,-249,991,3500,1890,10850,399,171,-244
10:52:34.139,,-218,-229,976,1680,560,16310,406,171,-250
10:52:34.158,,-222,-235,1000,-490,-2590,21490,412,166,-253
10:52:34.177,,-236,-186,1006,-1050,-5530,25690,412,181,-268
10:52:34.195,,-247,-135,1003,0,-7630,27230,412,186,-280
10:52:34.214,,-245,-74,1011,2870,-9590,26390,409,190,-286
10:52:34.233,,-251,-68,1042,8190,-10850,25130,390,187,-292
10:52:34.252,,-235,-19,1079,17780,-11550,22820,393,195,-297
10:52:34.271,,-222,20,1106,21700,-9940,19250,385,193,-294
10:52:34.289,,-211,59,1087,16800,-7910,14910,391,201,-292
10:52:34.308,,-204,51,1067,6720,-5740,10920,391,204,-288
10:52:34.327,,-200,6,1061,-2030,-4760,7490,390,202,-300
10:52:34.346,,-192,-35,1063,-4480,-5110,4550,393,196,-298
10:52:34.364,,-185,-47,1061,-1050,-6370,2030,381,201,-313
10:52:34.383,,-175,-52,1058,3010,-7770,560,387,201,-313
10:52:34.402,,-166,-61,1048,4620,-8820,280,387,207,-316
10:52:34.421,,-156,-81,1030,4340,-9240,490,388,202,-304
10:52:34.439,,-146,-91,1024,4340,-8750,490,384,205,-306
10:52:34.458,,-144,-89,1021,4060,-7490,0,385,202,-307
10:52:34.477,,-143,-92,1022,2870,-6510,-700,390,189,-306
10:52:34.496,,-144,-94,1026,2380,-5950,-1540,387,195,-315
10:52:34.515,,-143,-83,1035,2240,-5670,-2100,402,201,-310
10:52:34.533,,-141,-84,1030,1400,-5390,-2660,391,201,-312
10:52:34.552,,-138,-89,1035,1120,-4620,-3500,394,190,-307
10:52:34.571,,-135,-95,1051,770,-3570,-3780,393,189,-304
10:52:34.590,,-139,-102,1061,-700,-2310,-3640,388,186,-312
10:52:34.608,,-147,-105,1062,-1400,-1260,-3780,393,192,-312
10:52:34.627,,-155,-103,1064,-560,-910,-3640,391,198,-316
10:52:34.646,,-159,-85,1076,1330,-1050,-3010,400,199,-318
10:52:34.665,,-160,-69,1076,2590,-1190,-1890,396,187,-318
10:52:34.683,,-159,-60,1070,3080,-910,-1330,394,184,-322
10:52:34.702,,-162,-56,1060,3220,70,-1750,394,183,-321
10:52:34.721,,-169,-56,1050,3780,910,-2870,388,183,-316
10:52:34.740,,-176,-57,1041,4060,1470,-4130,385,192,-328
10:52:34.758,,-180,-62,1047,4130,1120,-5040,384,196,-321
10:52:34.777,,-184,-73,1054,4060,350,-5530,379,192,-321
10:52:34.796,,-188,-94,1052,3710,-910,-5110,367,180,-315
10:52:34.815,,-190,-113,1062,3500,-2170,-3640,367,180,-315
10:52:34.834,,-182,-127,1072,3640,-2800,-1190,366,180,-315
10:52:34.852,,-179,-123,1072,4130,-1750,1330,369,180,-307
10:52:34.871,,-181,-112,1066,3780,490,3360,364,184,-307
10:52:34.890,,-187,-106,1054,2940,2660,5180,369,190,-307
10:52:34.909,,-189,-104,1037,2730,4060,7140,358,184,-310
10:52:34.927,,-188,-104,1012,3360,4760,8820,355,183,-310
10:52:34.946,,-194,-105,983,3360,4900,10080,361,180,-309
10:52:34.965,,-203,-91,972,2590,4760,10640,354,186,-306
10:52:34.984,,-214,-91,978,560,3850,10500,361,180,-313
10:52:35.002,,-232,-107,980,-2660,2310,10290,363,193,-309
10:52:35.021,,-237,-135,981,-4830,-630,10500,355,187,-306
10:52:35.040,,-236,-147,975,-4900,-4130,12460,358,198,-301
10:52:35.059,,-232,-150,959,-5320,-7910,15890,352,184,-295
10:52:35.078,,-224,-154,963,-6650,-11900,19600,343,192,-298
10:52:35.096,,-219,-129,987,-7840,-14280,22540,354,195,-303
10:52:35.115,,-225,-100,993,-8400,-15120,24290,351,207,-306
10:52:35.134,,-233,-66,991,-9870,-15680,24710,355,207,-301
10:52:35.153,,-224,-18,1013,-11480,-15750,24710,349,195,-298
10:52:35.171,,-216,-19,1020,-15260,-14700,23240,354,192,-300
10:52:35.190,,-202,-33,1028,-18480,-13440,21770,349,186,-294
10:52:35.209,,-185,-53,1062,-19530,-11970,19740,363,193,-289
10:52:35.228,,-158,-64,1100,-18830,-10850,17220,369,210,-294
10:52:35.246,,-138,-62,1126,-16940,-9590,15120,372,222,-292
10:52:35.265,,-126,-66,1133,-16520,-8260,13370,370,217,-291
10:52:35.284,,-116,-82,1123,-17430,-7630,11550,370,204,-291
10:52:35.303,,-98,-97,1089,-18620,-8120,10430,375,201,-285
10:52:35.322,,-91,-120,1067,-19040,-8540,10290,376,214,-288
10:52:35.340,,-85,-135,1069,-18060,-8470,10430,390,216,-274
10:52:35.359,,-87,-145,1074,-17360,-7770,10080,393,223,-276
10:52:35.378,,-87,-145,1074,-17360,-7770,10080,390,208,-282
10:52:35.397,,-78,-167,1070,-16310,-7490,9450,387,211,-279
10:52:35.415,,-67,-157,1066,-11550,-7000,8400,382,207,-280
10:52:35.434,,-80,-113,1066,-5320,-5390,6790,388,223,-283
10:52:35.453,,-98,-110,1053,-5110,-3710,5110,387,231,-294
10:52:35.472,,-104,-131,1041,-7560,-3290,3710,390,228,-283
10:52:35.490,,-110,-149,1044,-8820,-3220,2170,382,229,-288
10:52:35.509,,-114,-152,1052,-10640,-2940,1190,390,226,-283
10:52:35.528,,-122,-175,1042,-10850,-2940,980,400,223,-282
10:52:35.547,,-117,-183,1048,-7070,-3990,1470,394,229,-286
10:52:35.565,,-116,-181,1056,-3010,-4410,2380,391,234,-283
10:52:35.584,,-118,-166,1058,-560,-3990,3010,393,222,-288
10:52:35.603,,-120,-157,1048,210,-2940,2450,393,217,-292
10:52:35.622,,-112,-162,1027,-560,-2940,2170,379,220,-294
10:52:35.641,,-94,-194,1012,-560,-2940,1820,388,223,-292
10:52:35.659,,-116,-161,1020,490,-2170,1330,382,223,-288
10:52:35.678,,-109,-170,1024,0,-3570,2730,384,216,-283
10:52:35.697,,-115,-166,1026,350,-4130,2590,390,222,-283
10:52:35.716,,-109,-154,1035,980,-4970,2380,390,222,-283
10:52:35.734,,-111,-147,1035,490,-5950,2170,397,219,-285
10:52:35.753,,-106,-145,1034,-210,-5740,1260,408,217,-282
10:52:35.772,,-109,-153,1041,-1330,-4620,-210,406,219,-285
10:52:35.791,,-110,-163,1057,-2940,-4900,-420,406,208,-292
10:52:35.809,,-106,-164,1065,-2590,-5110,-350,414,219,-286
10:52:35.828,,-115,-151,1053,-210,-4830,140,402,223,-294
10:52:35.847,,-119,-158,1045,1330,-4620,420,405,217,-294
10:52:35.866,,-116,-186,1035,2310,-4200,70,397,222,-295
10:52:35.885,,-130,-188,1022,6650,-3640,-1540,402,219,-304
10:52:35.903,,-113,-154,1040,12040,-4620,-1400,400,217,-295
10:52:35.922,,-94,-128,1092,8820,-4410,-70,399,217,-300
10:52:35.941,,-96,-112,1069,-280,-2310,630,396,222,-306
10:52:35.960,,-90,-127,1059,-3780,280,-770,394,220,-298
10:52:35.978,,-71,-108,1064,-4200,2310,-2800,394,220,-307
10:52:35.997,,-66,-146,1063,-9450,5390,-4830,397,217,-306
10:52:36.016,,-75,-148,1063,-23730,9240,-5040,396,225,-294
10:52:36.035,,-103,-184,1054,-42070,12250,-4480,396,223,-286
10:52:36.053,,-114,-287,1024,-45080,10500,-1470,402,222,-285
10:52:36.072,,-130,-294,1010,-26810,7630,-2310,402,220,-279
10:52:36.091,,-138,-238,998,-910,3780,-3360,412,223,-288
10:52:36.110,,-130,-186,1011,12390,0,-2940,399,219,-289
10:52:36.128,,-135,-162,1017,10500,-1540,-2940,405,223,-294
10:52:36.147,,-145,-177,1025,3850,-1540,-3710,409,223,-306
10:52:36.166,,-146,-193,1032,3010,-1400,-4760,408,223,-303
10:52:36.185,,-150,-198,1030,6930,-1120,-5740,406,226,-307
10:52:36.204,,-143,-199,1043,14070,-1820,-5810,402,217,-307
10:52:36.222,,-139,-181,1061,23380,-2240,-5740,397,217,-307
10:52:36.241,,-136,-167,1062,32270,-2660,-6300,396,217,-304
10:52:36.260,,-117,-143,1067,38850,-3220,-7140,387,208,-300
10:52:36.279,,-110,-109,1089,41790,-1820,-8890,387,223,-304
10:52:36.297,,-114,-81,1105,42490,-1050,-10430,385,211,-312
10:52:36.316,,-115,-77,1086,44380,-1260,-13020,382,210,-324
10:52:36.335,,-102,-84,1075,52850,-1750,-16030,370,214,-325
10:52:36.354,,-122,-17,1092,66220,-1120,-21350,360,208,-336
10:52:36.372,,-124,26,1096,77490,-1750,-25620,361,205,-337
10:52:36.391,,-116,76,1103,84210,-2030,-30380,351,198,-346
10:52:36.410,,-109,101,1116,85050,-1750,-35000,343,202,-351
10:52:36.429,,-117,142,1120,80500,140,-39690,337,198,-352
10:52:36.447,,-114,145,1093,69930,2240,-42280,334,199,-357
10:52:36.466,,-119,130,1066,55090,4270,-43890,328,193,-352
10:52:36.485,,-131,118,1046,42280,5950,-45010,328,184,-348
10:52:36.504,,-131,67,1041,32130,6160,-45290,333,181,-343
10:52:36.523,,-128,24,1034,23030,6370,-44800,345,168,-355
10:52:36.541,,-139,-22,1026,15050,6720,-41860,358,160,-360
10:52:36.560,,-155,-51,1016,9170,6160,-36960,354,163,-369
10:52:36.579,,-168,-75,1007,6370,4970,-30310,352,166,-379
10:52:36.598,,-159,-98,1005,6580,3220,-22470,351,159,-385
10:52:36.616,,-157,-87,995,7840,3010,-14770,355,169,-381
10:52:36.635,,-165,-56,989,8610,3990,-8610,355,169,-381
10:52:36.654,,-169,-15,974,6300,4620,-4550,348,166,-387
10:52:36.673,,-167,5,976,2100,4550,-2030,349,166,-388
10:52:36.691,,-170,31,985,-1330,4340,-210,345,166,-397
10:52:36.710,,-175,58,996,-2170,3570,1190,336,171,-399
10:52:36.729,,-172,84,1012,-1190,1890,1890,328,174,-396
10:52:36.748,,-171,120,1016,280,140,1960,325,178,-397
10:52:36.766,,-169,130,1023,-210,-770,1260,318,177,-388
10:52:36.785,,-162,132,1038,-1680,-1050,-350,318,180,-384
10:52:36.804,,-162,124,1051,-3780,-420,-2100,307,178,-376
10:52:36.823,,-166,100,1053,-6020,350,-3220,307,178,-376
10:52:36.842,,-176,81,1052,-6370,630,-3220,327,184,-370
10:52:36.860,,-180,67,1056,-4760,210,-2450,318,183,-373
10:52:36.879,,-181,74,1061,-2730,-140,-1260,319,177,-369
10:52:36.898,,-185,81,1058,-2660,-70,-350,318,184,-379
10:52:36.917,,-189,79,1053,-4130,-210,-140,327,180,-382
10:52:36.935,,-193,72,1059,-5110,-630,0,325,177,-376
10:52:36.954,,-191,72,1064,-3850,-1050,560,330,184,-363
10:52:36.973,,-187,74,1060,-2030,-1330,1470,327,175,-369
10:52:36.992,,-166,67,1057,140,-910,2240,328,177,-369
10:52:37.010,,-155,73,1052,2310,910,2380,321,178,-372
10:52:37.029,,-155,71,1034,2100,3150,1890,325,189,-369
10:52:37.048,,-154,67,1013,630,4410,1540,324,186,-372
10:52:37.067,,-159,61,998,-700,4690,2030,334,181,-361
10:52:37.085,,-159,60,1000,-210,3990,2870,337,181,-367
10:52:37.104,,-162,76,1004,910,2940,3360,327,183,-367
10:52:37.123,,-165,88,1003,420,1680,3360,322,180,-373
10:52:37.142,,-168,100,1011,-1330,350,2520,328,186,-367
10:52:37.161,,-168,100,1011,-1330,350,2520,325,190,-373
10:52:37.179,,-174,106,1031,-3010,-770,1330,331,192,-361
10:52:37.198,,-177,109,1047,-3920,-1610,210,334,181,-355
10:52:37.204,<gest8_up,,,,,,,,,
10:52:37.217,,-181,103,1057,-3080,-1960,-700,337,184,-345
10:52:37.236,,-180,111,1073,-1540,-2240,-1680,336,193,-340
10:52:37.254,,-184,107,1084,-560,-2240,-2520,348,183,-349
10:52:37.273,,-188,102,1084,350,-2030,-2870,343,183,-357
10:52:37.292,,-189,96,1073,1680,-1750,-2800,337,183,-351
10:52:37.311,,-190,100,1056,3080,-1400,-2730,339,177,-355
10:52:37.329,,-188,89,1054,3150,-1330,-2520,342,172,-357
10:52:37.348,,-182,71,1054,3010,-1470,-1820,346,169,-352
10:52:37.367,,-179,63,1045,3920,-1330,-840,334,174,-372
10:52:37.386,,-164,64,1041,4550,-1190,-140,336,189,-381
10:52:37.404,,-154,63,1027,2730,-560,-140,336,186,-369
10:52:37.423,,-153,57,1019,-420,210,-350,337,171,-367
10:52:37.442,,-166,56,1020,-3150,560,-70,328,160,-366
10:52:37.461,,-175,56,1031,-3570,70,840,328,160,-367
10:52:37.480,,-179,74,1053,-1540,-700,2170,318,174,-372
10:52:37.498,,-174,103,1061,1400,-910,2450,328,187,-384
10:52:37.517,,-170,126,1057,2660,420,1960,328,177,-376
10:52:37.536,,-173,122,1037,1330,2660,840,328,177,-376
10:52:37.555,,-174,103,1030,-1610,4550,-490,319,169,-370
10:52:37.573,,-182,78,1027,-3990,5460,-1470,318,154,-361
10:52:37.592,,-183,66,1036,-3780,4200,-2170,313,160,-370
10:52:37.611,,-183,66,1041,-2800,1960,-2030,318,171,-381
10:52:37.630,,-183,79,1052,-1330,-490,-840,321,184,-391
10:52:37.648,,-179,100,1069,140,-2240,490,327,181,-385
10:52:37.667,,-184,120,1071,1190,-2940,560,316,172,-376
10:52:37.686,,-188,138,1064,1190,-3080,-980,307,154,-373
10:52:37.705,,-190,132,1028,420,-3290,-3080,303,154,-372
10:52:37.723,,-188,106,1010,1400,-4130,-4270,310,174,-367
10:52:37.742,,-176,92,1048,3430,-4410,-4060,310,183,-373
10:52:37.761,,-168,68,1060,5250,-4340,-3920,315,186,-373
10:52:37.780,,-171,53,1044,6230,-3920,-3850,292,168,-364
10:52:37.799,,-164,70,1017,5530,-3780,-4060,298,154,-355
10:52:37.817,,-171,80,1008,2450,-3080,-4550,294,153,-351
10:52:37.836,,-172,60,1015,-1820,-2870,-4410,307,157,-364
10:52:37.855,,-175,51,1024,-3290,-2940,-3990,301,175,-370
10:52:37.874,,-178,54,1034,-2660,-2800,-3150,315,175,-360
10:52:37.892,,-179,61,1029,-2450,-2450,-1890,310,162,-363
10:52:37.911,,-174,57,1019,-4060,-1680,-420,312,147,-363
10:52:37.930,,-170,63,1015,-6230,-350,770,304,141,-361
10:52:37.949,,-166,55,1022,-8680,980,1750,318,157,-375
10:52:37.967,,-168,71,1035,-13230,2450,2730,322,175,-376
10:52:37.986,,-167,67,1037,-24710,3780,4130,336,177,-376
10:52:38.005,,-168,39,1032,-33600,4200,5950,331,171,-382
10:52:38.024,,-156,-15,1034,-36540,3850,6790,322,151,-367
10:52:38.043,,-143,-43,1049,-33180,3850,7840,319,159,-357
10:52:38.061,,-119,-87,1040,-31920,4340,10010,336,178,-358
10:52:38.080,,-130,-81,1027,-36400,6230,14700,346,198,-360
10:52:38.099,,-129,-169,969,-49490,5670,19950,358,205,-358
10:52:38.118,,-129,-243,941,-59360,3710,26250,345,187,-345
10:52:38.136,,-120,-309,937,-60620,-280,32690,330,171,-327
10:52:38.155,,-133,-297,927,-48650,-3780,39340,330,166,-309
10:52:38.174,,-131,-259,938,-29610,-9310,45570,346,181,-310
10:52:38.193,,-122,-174,943,-15540,-13160,50260,355,196,-318
10:52:38.211,,-139,-76,962,-12040,-14840,53340,379,198,-321
10:52:38.230,,-155,-4,1009,-15820,-15890,54040,372,199,-328
10:52:38.249,,-170,46,1039,-27300,-15260,50890,378,195,-328
10:52:38.268,,-184,54,1048,-39970,-14910,43960,381,204,-337
10:52:38.286,,-192,72,1064,-49980,-14490,35840,379,196,-340
10:52:38.305,,-212,68,1097,-61180,-13790,27930,388,214,-333
10:52:38.324,,-234,81,1108,-69860,-13370,19530,405,220,-336
10:52:38.343,,-252,107,1110,-78540,-13090,10990,397,211,-333
10:52:38.362,,-245,74,1142,-91210,-14630,7140,414,202,-321
10:52:38.380,,-223,8,1168,-108710,-15890,4130,405,195,-301
10:52:38.399,,-200,-55,1170,-126280,-14070,1260,421,193,-282
10:52:38.418,,-195,-165,1105,-149310,-10430,770,433,211,-277
10:52:38.437,,-202,-296,1026,-164850,-8610,1260,454,226,-261
10:52:38.455,,-184,-461,984,-164360,-8750,2170,454,226,-261
10:52:38.474,,-174,-531,998,-149450,-7140,2450,471,222,-238
10:52:38.493,,-158,-564,1033,-133420,-5740,3640,471,204,-219
10:52:38.512,,-152,-590,1026,-120890,-3850,4550,465,204,-204
10:52:38.530,,-132,-640,971,-109130,-2450,4830,469,214,-202
10:52:38.549,,-130,-605,898,-100660,-770,5600,484,216,-184
10:52:38.568,,-119,-726,812,-96460,-770,7350,493,229,-183
10:52:38.587,,-94,-764,811,-83650,-2660,7560,496,229,-174
10:52:38.605,,-57,-790,831,-64610,-4130,7070,490,225,-156
10:52:38.624,,-61,-749,845,-44730,-2590,7980,486,207,-157
10:52:38.643,,-74,-728,793,-34090,-1260,8750,481,225,-159
10:52:38.662,,-114,-686,762,-26670,-770,9520,493,223,-144
10:52:38.681,,-107,-747,776,-21630,-1890,10080,496,238,-144
10:52:38.699,,-109,-737,787,-10570,-2940,9660,489,240,-144
10:52:38.718,,-108,-691,792,700,-3430,8820,486,216,-142
10:52:38.737,,-110,-651,790,5880,-3430,7630,477,213,-141
10:52:38.756,,-108,-632,783,5950,-3640,6650,469,208,-144
10:52:38.774,,-105,-630,793,2310,-4060,5460,478,219,-145
10:52:38.793,,-111,-657,797,-980,-3990,3780,484,237,-151
10:52:38.812,,-117,-680,786,-700,-3850,2380,489,235,-150
10:52:38.831,,-132,-694,757,1400,-3990,2100,490,229,-141
10:52:38.849,,-148,-677,748,3710,-4200,2380,480,213,-142
10:52:38.868,,-149,-663,761,7140,-3780,1890,475,208,-145
10:52:38.887,,-141,-651,797,12740,-3430,1190,477,231,-144
10:52:38.906,,-111,-594,852,14070,-630,-70,484,235,-150
10:52:38.924,,-145,-594,825,840,1260,700,490,240,-145
10:52:38.943,,-145,-668,825,840,1260,700,477,237,-142
10:52:38.962,,-154,-669,804,-4970,4620,1610,474,225,-135
10:52:38.981,,-155,-671,810,-5670,4480,2800,469,219,-123
10:52:39.-01,,-149,-636,829,-5530,6930,2520,474,220,-126
10:52:39.018,,-141,-659,825,-9590,10430,1260,478,228,-133
10:52:39.037,,-133,-690,796,-12460,13650,-700,478,235,-132
10:52:39.056,,-112,-721,776,-10010,12040,-1330,492,213,-126
10:52:39.075,,-79,-710,791,-4270,8610,-1260,472,210,-133
10:52:39.093,,-63,-714,798,-1470,2940,0,474,204,-127
10:52:39.112,,-86,-684,768,-2730,-280,1960,477,205,-130
10:52:39.131,,-113,-660,743,-4130,-980,2030,499,220,-133
10:52:39.150,,-114,-659,774,-2310,-1610,980,507,223,-141
10:52:39.168,,-119,-651,800,-1540,-700,-1050,507,216,-123
10:52:39.187,,-120,-675,808,-3780,700,-3220,507,202,-139
10:52:39.206,,-134,-685,800,-6090,1960,-4620,502,198,-145
10:52:39.225,,-142,-698,789,-7490,2240,-5180,495,211,-147
10:52:39.243,,-149,-719,784,-7560,2240,-4830,496,219,-150
10:52:39.262,,-142,-723,789,-4270,2030,-3780,504,214,-153
10:52:39.281,,-133,-716,795,-280,2310,-3080,495,216,-157
10:52:39.300,,-121,-700,788,1610,2940,-2800,487,207,-162
10:52:39.319,,-112,-699,781,1750,3430,-2730,468,183,-157
10:52:39.337,,-94,-675,794,3220,4200,-2870,465,196,-159
10:52:39.356,,-91,-676,809,4690,5600,-3850,465,196,-159
10:52:39.375,,-107,-685,805,6650,8050,-5040,459,193,-166
10:52:39.394,,-127,-689,792,9730,10360,-5740,472,196,-168
10:52:39.412,,-137,-714,781,15820,11480,-5460,480,187,-163
10:52:39.431,,-143,-759,781,29540,11760,-3220,474,177,-165
10:52:39.450,,-137,-763,793,52080,12740,-1190,477,181,-174
10:52:39.469,,-134,-706,795,78540,12600,-3500,475,196,-198
10:52:39.487,,-133,-642,802,99890,11200,-5250,475,202,-205
10:52:39.506,,-137,-573,814,110950,9310,-6930,474,216,-217
10:52:39.525,,-142,-504,823,115430,6790,-9310,472,202,-223
10:52:39.544,,-151,-440,827,119070,3570,-12390,445,187,-231
10:52:39.562,,-159,-416,813,127190,-1750,-16030,427,190,-240
10:52:39.581,,-158,-439,790,140770,-8470,-18620,414,187,-252
10:52:39.600,,-175,-433,777,156660,-15960,-20860,409,189,-273
10:52:39.619,,-159,-317,812,171150,-22050,-25970,408,198,-282
10:52:39.638,,-180,-150,867,163590,-27230,-30100,402,181,-306
10:52:39.656,,-174,-62,929,122010,-31150,-32060,385,174,-309
10:52:39.675,,-146,-110,976,59640,-32130,-29120,384,157,-316
10:52:39.694,,-115,-263,986,2310,-31080,-24220,396,166,-316
10:52:39.713,,-123,-340,961,-30240,-28770,-21560,409,166,-315
10:52:39.731,,-116,-360,963,-35700,-27510,-19320,418,181,-312
10:52:39.750,,-87,-376,1019,-26390,-26040,-16800,423,168,-310
10:52:39.769,,-61,-344,1066,-20650,-23240,-13580,426,163,-301
10:52:39.788,,-60,-344,1077,-27860,-18830,-10220,432,150,-285
10:52:39.806,,-50,-353,1078,-39760,-15050,-5880,435,162,-279
10:52:39.825,,-55,-333,1077,-55580,-9450,140,450,165,-282
10:52:39.844,,-47,-328,1078,-85890,-2310,6790,466,172,-280
10:52:39.863,,-44,-385,1062,-128730,4970,15470,475,172,-268
10:52:39.882,,-51,-489,1027,-175490,12040,21420,483,163,-240
10:52:39.900,,-102,-552,1015,-220220,18340,23100,490,160,-213
10:52:39.919,,-148,-551,942,-253260,20160,22540,504,177,-171
10:52:39.938,,-171,-684,829,-273280,18340,20790,520,190,-144
10:52:39.957,,-210,-770,734,-266490,14070,23660,532,214,-109
10:52:39.975,,-192,-905,630,-236250,9940,19810,535,210,-87
10:52:39.994,,-165,-911,600,-181090,560,21350,529,217,-64
10:52:40.013,,-108,-891,542,-137550,-12320,20090,525,210,-49
10:52:40.032,,-92,-840,501,-115360,-18410,19600,517,216,-37
10:52:40.050,,-36,-995,546,-113050,-22400,21140,523,231,-27
10:52:40.069,,-55,-814,667,-113470,-16660,20230,517,240,-3
10:52:40.088,,-47,-1019,683,-119210,-6790,16170,519,250,1
10:52:40.107,,-57,-886,631,-108640,5950,12460,507,241,18
10:52:40.125,,-112,-1052,508,-99540,15610,8120,504,238,36
10:52:40.144,,-123,-1099,462,-63210,16590,9730,490,243,37
10:52:40.163,,-59,-1000,487,-9240,13440,8960,495,256,28
10:52:40.182,,-33,-978,440,31500,11830,6440,496,265,30
10:52:40.200,,-64,-891,413,52710,11060,5250,505,267,25
10:52:40.219,,-91,-906,423,38220,11410,4830,513,253,16
10:52:40.238,,-120,-1016,490,2170,16170,8400,499,249,27
10:52:40.257,,-150,-1093,350,-15050,20790,10290,499,261,31
10:52:40.276,,-147,-922,399,-3150,21770,11900,499,261,31
10:52:40.294,,-83,-823,508,6300,25480,10990,502,264,31
10:52:40.313,,-76,-810,591,11270,32410,7910,501,264,28
10:52:40.332,,-60,-977,693,10990,42350,7700,499,273,30
10:52:40.351,,-127,-966,550,26040,49700,8890,511,262,25
10:52:40.369,,-167,-875,441,39970,50190,9380,507,249,34
10:52:40.388,,-175,-752,496,31780,49420,9030,508,249,30
10:52:40.407,,-211,-764,433,10150,50050,4620,502,258,31
10:52:40.426,,-253,-813,377,4130,48580,1120,504,267,39
10:52:40.444,,-303,-886,376,7490,47600,-1330,508,262,36
10:52:40.463,,-337,-861,347,14210,47460,-1680,511,253,28
10:52:40.482,,-393,-833,313,18830,45990,-2380,499,253,27
10:52:40.501,,-423,-798,301,21700,41370,-4760,504,259,33
10:52:40.520,,-404,-779,338,19320,34860,-7770,498,256,40
10:52:40.538,,-342,-829,362,12810,28210,-12040,496,258,34
10:52:40.557,,-277,-932,346,7000,22120,-14910,498,247,30
10:52:40.576,,-238,-993,372,7280,14070,-16170,498,237,24
10:52:40.595,,-217,-937,399,9450,5880,-16240,490,234,27
10:52:40.613,,-238,-908,390,2170,3080,-15540,487,222,36
10:52:40.632,,-245,-947,366,-4410,630,-12460,483,223,40
10:52:40.651,,-241,-955,391,-1190,-1050,-9380,490,223,33
10:52:40.670,,-233,-937,437,6650,-3290,-7210,490,225,36
10:52:40.688,,-232,-902,477,12040,-5880,-4130,492,219,25
10:52:40.707,,-239,-902,503,12320,-8820,-2310,495,205,24
10:52:40.726,,-239,-897,503,12320,-8820,-2310,490,207,19
10:52:40.745,,-260,-852,481,8120,-13020,-1960,493,208,30
10:52:40.764,,-276,-869,446,4830,-15960,-1610,496,222,22
10:52:40.782,,-294,-885,417,8540,-17430,-1960,501,225,12
10:52:40.801,,-279,-909,436,13720,-20090,-3500,504,220,12
10:52:40.820,,-256,-910,470,14630,-20440,-4900,502,214,4
10:52:40.839,,-225,-915,488,7280,-19460,-6580,505,207,9
10:52:40.857,,-205,-899,474,-1820,-16940,-7630,499,211,10
10:52:40.876,,-181,-906,471,-5110,-14420,-8400,505,213,7
10:52:40.895,,-171,-951,478,-980,-12880,-7980,505,220,13
10:52:40.914,,-148,-953,503,7000,-13160,-7140,511,222,-4
10:52:40.932,,-142,-930,531,13300,-12320,-6160,510,210,-10
10:52:40.951,,-136,-911,549,14490,-10220,-4550,498,207,-13
10:52:40.970,,-130,-939,571,14490,-9240,-3290,487,205,-3
10:52:40.989,,-133,-908,565,13580,-9450,-3290,493,208,-4
10:52:41.007,,-155,-872,540,10150,-8890,-3220,501,205,0
10:52:41.026,,-164,-881,529,9660,-8820,-2520,510,202,1
10:52:41.045,,-177,-888,538,11410,-8330,-2730,498,198,-6
10:52:41.064,,-175,-906,550,11130,-8470,-1820,505,193,-1
10:52:41.083,,-175,-878,557,8120,-8470,-1540,510,199,-1
10:52:41.101,,-179,-900,550,4620,-7280,-700,510,202,-4
10:52:41.120,,-165,-883,540,6090,-7000,-280,529,214,-3
10:52:41.139,,-159,-879,542,10850,-6720,770,522,208,-7
10:52:41.158,,-149,-899,551,14770,-6090,1400,540,213,-15
10:52:41.176,,-143,-868,557,16520,-5320,1120,541,210,-21
10:52:41.195,,-150,-859,553,13650,-5180,1680,541,210,-21
10:52:41.214,,-155,-872,538,9030,-4690,1610,526,211,-15
10:52:41.233,,-176,-898,543,5320,-4970,3010,523,220,-21
10:52:41.251,,-178,-842,540,3710,-5530,3080,520,232,-22
10:52:41.270,,-189,-878,554,1610,-5320,3570,513,220,-27
10:52:41.289,,-185,-835,553,140,-5740,3500,511,222,-33
10:52:41.308,,-186,-883,569,70,-5740,3290,499,217,-25
10:52:41.326,,-182,-841,558,2660,-7140,2730,492,213,-24
10:52:41.345,,-175,-827,547,4760,-7840,1890,490,207,-18
10:52:41.364,,-173,-834,547,7910,-8890,770,496,210,-7
10:52:41.383,,-166,-860,575,13790,-11130,140,514,201,-4
10:52:41.402,,-153,-827,584,15050,-13370,-700,528,199,-9
10:52:41.420,,-150,-836,585,12320,-14210,-1190,535,198,-13
10:52:41.439,,-155,-881,573,9170,-14770,-770,541,202,-27
10:52:41.458,,-161,-853,580,7770,-15540,700,543,208,-39
10:52:41.477,,-137,-882,606,8540,-16450,3010,543,220,-49
10:52:41.495,,-130,-866,627,10080,-16800,4830,541,213,-63
10:52:41.514,,-103,-863,627,10290,-15750,5250,532,223,-70
10:52:41.533,,-131,-810,621,11270,-13020,5460,519,217,-64
10:52:41.552,,-116,-831,624,13440,-11410,6720,502,210,-75
10:52:41.570,,-105,-808,626,18130,-9450,5600,501,219,-81
10:52:41.589,,-106,-824,635,22470,-7140,3500,502,225,-75
10:52:41.608,,-113,-796,625,22050,-4480,1190,507,213,-82
10:52:41.627,,-122,-787,616,17290,-770,-1120,505,214,-82
10:52:41.646,,-147,-822,632,11620,2450,-2100,504,202,-79
10:52:41.664,,-148,-866,652,6020,3220,-2240,496,195,-73
10:52:41.683,,-165,-818,652,2520,4480,-2450,487,210,-82
10:52:41.702,,-174,-828,678,0,5740,-1400,501,213,-72
10:52:41.721,,-168,-815,667,-1680,5390,-490,507,217,-73
10:52:41.739,,-154,-860,672,-770,4550,1120,505,211,-76
10:52:41.758,,-120,-814,677,1330,5810,1820,504,211,-72
10:52:41.777,,-130,-825,653,140,10710,2660,498,211,-72
10:52:41.796,,-142,-840,611,770,13440,2100,496,214,-69
10:52:41.814,,-161,-871,594,6370,13090,-70,499,217,-70
10:52:41.833,,-167,-824,582,12600,11760,0,505,217,-69
10:52:41.852,,-147,-787,617,15890,12740,2030,504,217,-82
10:52:41.871,,-158,-777,659,14980,12880,2660,498,214,-78
10:52:41.890,,-156,-795,617,6300,10570,980,504,210,-79
10:52:41.908,,-183,-843,575,3850,9450,-910,498,201,-78
10:52:41.927,,-192,-848,585,15190,8540,-3150,499,213,-73
10:52:41.946,,-175,-802,665,31150,7700,-3990,493,225,-75
10:52:41.965,,-186,-719,706,29820,8260,-3150,508,210,-79
10:52:41.983,,-202,-770,686,16240,8400,-2520,502,208,-76
10:52:42.002,,-198,-799,645,9380,7280,-1750,498,210,-73
10:52:42.021,,-207,-771,656,7630,6300,-1470,505,210,-75
10:52:42.040,,-209,-743,670,6720,5950,-1890,498,231,-70
10:52:42.058,,-197,-759,695,2870,5250,-770,510,225,-82
10:52:42.077,,-191,-761,688,-2590,4130,-2520,504,222,-70
10:52:42.096,,-192,-762,680,-7840,3150,-4130,502,229,-73
10:52:42.115,,-177,-782,687,-14350,1610,-4410,502,229,-73
10:52:42.133,,-170,-783,655,-25760,560,-5880,493,222,-57
10:52:42.152,,-167,-803,632,-36610,140,-6510,487,211,-57
10:52:42.171,,-169,-802,632,-41510,-630,-6580,492,222,-45
10:52:42.190,,-169,-782,656,-47880,-910,-7630,496,211,-36
10:52:42.209,,-163,-787,584,-54390,-840,-7840,495,207,-34
10:52:42.227,,-159,-838,572,-55370,-980,-7700,487,204,-30
10:52:42.246,,-160,-878,574,-48860,-980,-6720,496,199,-30
10:52:42.265,,-152,-854,576,-36890,-560,-5600,490,193,-21
10:52:42.284,,-157,-890,601,-24430,210,-4060,508,190,-12
10:52:42.302,,-160,-868,590,-14490,630,-3360,522,202,-13
10:52:42.321,,-166,-856,574,-7490,1260,-2310,531,198,-15
10:52:42.340,,-165,-853,545,-3220,1750,-1680,532,210,-22
10:52:42.359,,-168,-844,546,-1120,2170,-1820,540,210,-19
10:52:42.377,,-171,-850,554,-490,2450,-1820,538,207,-19
10:52:42.396,,-168,-853,555,-700,2590,-2240,537,217,-15
10:52:42.415,,-171,-855,538,420,2310,-2100,535,219,-25
10:52:42.434,,-172,-844,542,4620,1890,-2030,534,226,-36
10:52:42.453,,-173,-854,551,8680,1120,-1750,528,222,-36
10:52:42.471,,-177,-832,547,9100,-70,-2030,520,216,-39
10:52:42.490,,-183,-832,545,6510,-420,-2310,499,216,-36
10:52:42.509,,-183,-836,545,6510,-420,-2310,504,207,-31
10:52:42.528,,-163,-865,556,4480,-1050,-2310,508,208,-31
10:52:42.546,,-154,-868,556,2590,-2030,-2590,510,205,-27
10:52:42.565,,-160,-891,560,770,-2450,-2170,516,195,-22
10:52:42.584,,-159,-891,564,-140,-3080,-1610,529,207,-15
10:52:42.603,,-164,-894,551,-630,-3640,-280,526,210,-28
10:52:42.621,,-165,-882,549,-140,-3850,700,543,219,-22
10:52:42.640,,-158,-903,578,2940,-4410,2030,544,222,-25
10:52:42.659,,-157,-853,576,5180,-5250,2520,543,228,-25
10:52:42.678,,-169,-856,566,6230,-5320,3290,531,223,-27
10:52:42.697,,-161,-883,579,11200,-5530,4270,529,226,-28
10:52:42.715,,-167,-850,585,15260,-5740,4200,528,225,-30
10:52:42.734,,-174,-855,596,17990,-5460,4200,514,229,-36
10:52:42.753,,-166,-844,616,20230,-5460,3080,520,219,-39
10:52:42.772,,-174,-839,626,18480,-5040,3010,513,228,-31
10:52:42.790,,-170,-817,610,14350,-4690,1540,523,216,-30
10:52:42.809,,-161,-818,604,9800,-3780,910,525,213,-36
10:52:42.828,,-148,-827,612,8820,-3990,-910,514,222,-33
10:52:42.847,,-151,-828,612,6930,-4060,-1680,519,225,-36
10:52:42.865,,-159,-834,609,6650,-4130,-2520,522,223,-31
10:52:42.884,,-158,-822,619,8540,-4760,-3500,523,237,-33
10:52:42.903,,-153,-818,617,11480,-5320,-3570,528,222,-36
10:52:42.922,,-150,-824,609,16030,-5600,-2940,523,232,-39
10:52:42.940,,-151,-890,625,31430,-7070,-2030,528,225,-43
10:52:42.959,,-143,-842,668,57260,-9590,-1120,526,231,-49
10:52:42.978,,-157,-798,699,78470,-11130,-210,526,232,-66
10:52:42.997,,-161,-801,719,91070,-12250,560,537,232,-91
10:52:43.016,,-161,-782,719,95410,-13090,1610,529,226,-105
10:52:43.034,,-157,-763,702,99470,-14000,2660,529,226,-105
10:52:43.053,,-141,-704,753,108990,-14840,1890,526,228,-127
10:52:43.072,,-132,-636,787,109060,-14910,140,519,223,-135
10:52:43.091,,-122,-661,812,107310,-16450,-1050,505,225,-157
10:52:43.109,,-100,-698,873,116620,-20160,-1540,499,223,-163
10:52:43.128,,-64,-551,921,125930,-20370,-5670,499,225,-192
10:52:43.147,,-95,-542,899,111300,-17500,-2800,501,222,-201
10:52:43.166,,-115,-493,860,96950,-18130,-2450,489,210,-217
10:52:43.184,,-137,-484,876,90300,-17780,-1190,484,213,-225
10:52:43.203,,-101,-443,954,81690,-17640,0,481,214,-235
10:52:43.222,,-82,-430,1002,63910,-14420,-140,474,217,-241
10:52:43.241,,-78,-453,967,42980,-11760,980,462,211,-249
10:52:43.259,,-68,-444,953,31430,-9450,1890,463,214,-250
10:52:43.278,,-46,-423,973,26810,-6720,2870,457,207,-252
10:52:43.297,,-46,-419,971,22330,-3850,2940,456,202,-252
10:52:43.316,,-51,-409,976,19740,-2170,2660,466,211,-252
10:52:43.335,,-72,-387,966,14560,-630,2170,457,210,-249
10:52:43.353,,-96,-395,961,6860,1190,2100,460,202,-253
10:52:43.372,,-91,-401,984,140,1680,2030,465,196,-241
10:52:43.391,,-92,-383,973,-5390,1470,1680,460,196,-247
10:52:43.410,,-93,-374,928,-7700,1120,840,466,201,-241
10:52:43.428,,-85,-378,945,-6160,350,-770,459,204,-237
10:52:43.447,,-90,-404,993,-7280,-980,-1540,459,199,-240
10:52:43.466,,-90,-424,1006,-17150,-1120,-2800,469,208,-243
10:52:43.485,,-79,-426,1012,-28770,-140,-2590,468,207,-225
10:52:43.503,,-79,-400,962,-43120,1960,-2870,475,195,-220
10:52:43.522,,-87,-453,956,-52290,4550,-2380,472,198,-208
10:52:43.541,,-82,-465,993,-50610,5250,-2100,471,201,-204
10:52:43.560,,-91,-482,994,-56350,6930,-2450,481,204,-196
10:52:43.578,,-91,-489,937,-66920,9240,-2730,495,207,-198
10:52:43.597,,-96,-519,905,-75250,10360,-2940,496,205,-187
10:52:43.616,,-94,-542,871,-73990,10640,-2520,487,198,-169
10:52:43.635,,-105,-584,866,-64960,11130,-2660,498,195,-178
10:52:43.654,,-96,-586,862,-49140,9170,-2450,504,198,-166
10:52:43.672,,-102,-597,856,-41300,7560,-2800,501,195,-165
10:52:43.691,,-104,-602,838,-39410,5740,-2940,508,208,-160
10:52:43.710,,-107,-627,830,-41860,3990,-2520,504,205,-166
10:52:43.729,,-112,-661,841,-41650,2240,-1820,499,207,-159
10:52:43.747,,-113,-646,820,-35280,210,-1470,513,202,-156
10:52:43.766,,-113,-655,810,-27440,-210,-1610,504,210,-148
10:52:43.785,,-103,-653,833,-12180,-1120,-1330,508,208,-142
10:52:43.804,,-103,-634,841,-2170,-1400,-1050,507,214,-156
10:52:43.822,,-104,-649,835,140,-980,-630,513,213,-157
10:52:43.841,,-100,-649,840,-1260,-630,-140,511,210,-153
10:52:43.860,,-94,-637,840,-2590,-420,420,511,204,-151
10:52:43.879,,-96,-620,820,-3710,210,770,504,208,-160
10:52:43.898,,-100,-646,820,-3220,490,700,507,213,-148
10:52:43.916,,-106,-626,813,-2170,630,490,511,216,-151
10:52:43.935,,-108,-651,825,-3360,1470,560,514,213,-151
10:52:43.954,,-109,-639,827,-5320,2170,210,514,213,-151
10:52:43.973,,-109,-655,836,-8820,3640,1540,516,208,-157
10:52:43.991,,-112,-660,832,-13370,3640,420,511,211,-151
10:52:44.010,,-115,-662,823,-16100,3990,770,511,219,-150
10:52:44.029,,-118,-680,820,-16800,4690,1050,508,213,-150
10:52:44.048,,-113,-635,790,-15190,4410,-210,513,217,-139
10:52:44.066,,-136,-674,783,-14210,5460,840,516,222,-147
10:52:44.085,,-124,-686,803,-8120,4410,-420,508,211,-142
10:52:44.104,,-122,-671,811,-4480,3290,-630,514,214,-139
10:52:44.123,,-135,-648,774,-6510,2870,-1120,507,213,-129
10:52:44.141,,-126,-676,771,-9590,2100,-560,510,219,-135
10:52:44.160,,-122,-665,780,-11760,1330,70,507,228,-130
10:52:44.179,,-130,-714,774,-15680,2310,1610,507,226,-124
10:52:44.198,,-131,-695,770,-15400,1680,70,514,217,-126
10:52:44.216,,-129,-716,778,-12460,1540,1190,517,210,-130
10:52:44.235,,-144,-705,774,-9940,1120,1260,508,219,-123
10:52:44.254,,-143,-691,761,-7210,210,700,507,217,-123
10:52:44.273,,-143,-691,761,-5040,-630,840,499,219,-127
10:52:44.292,,-136,-703,770,-5040,-630,840,502,223,-129
10:52:44.310,,-130,-693,766,-2380,-1610,980,504,211,-124
10:52:44.329,,-124,-699,764,-1470,-2310,420,499,226,-121
10:52:44.348,,-127,-707,779,-2100,-2100,1470,498,222,-103
10:52:44.367,,-138,-706,782,-3080,-2240,2660,493,214,-99
10:52:44.385,,-139,-693,771,-3010,-3080,630,510,213,-91
10:52:44.404,,-123,-689,773,-1890,-3220,1330,520,220,-103
10:52:44.423,,-120,-717,773,-1750,-3080,3010,510,213,-112
10:52:44.442,,-134,-688,776,350,-3570,1890,508,214,-109
10:52:44.460,,-126,-706,781,490,-3640,560,511,219,-112
10:52:44.479,,-132,-706,795,700,-3150,1050,516,216,-124
10:52:44.498,,-129,-649,770,-1960,-2310,1330,501,217,-121
10:52:44.517,,-122,-740,790,-2660,-1260,3920,510,225,-127
10:52:44.535,,-123,-688,785,350,-1610,980,516,220,-120
10:52:44.554,,-126,-711,792,770,-1050,560,505,213,-127
10:52:44.573,,-122,-691,789,560,-560,700,504,216,-121
10:52:44.592,,-127,-706,792,-1050,-560,420,501,220,-118
10:52:44.611,,-132,-699,787,-1260,-910,210,498,213,-117
10:52:44.629,,-131,-678,772,-1260,-910,-210,501,208,-120
10:52:44.648,,-131,-719,790,-700,-980,140,510,210,-115
10:52:44.667,,-129,-695,772,-840,-1190,-420,513,204,-118
10:52:44.686,,-121,-713,780,-560,-630,-70,514,202,-114
10:52:44.704,,-120,-685,775,-420,-490,-210,516,210,-121
10:52:44.723,,-124,-707,784,-630,-280,70,526,219,-123
10:52:44.742,,-131,-698,777,-840,-210,280,513,216,-129
10:52:44.761,,-134,-703,774,-1190,-70,630,522,223,-121
10:52:44.779,,-129,-702,775,-1120,-70,910,528,210,-129
10:52:44.798,,-136,-675,751,-1750,140,420,519,210,-127
10:52:44.817,,-133,-691,767,-770,210,630,513,216,-126
10:52:44.836,,-124,-699,776,-280,-420,420,505,214,-118
10:52:44.854,,-125,-712,772,-280,-700,630,505,214,-118
10:52:44.873,,-131,-695,763,-140,-840,210,513,210,-124
10:52:44.892,,-131,-711,770,-350,-1050,490,510,207,-130
10:52:44.911,,-131,-716,782,-140,-1330,840,516,201,-135
10:52:44.930,,-137,-691,766,-70,-1470,700,517,205,-135
10:52:44.948,,-129,-714,781,560,-1330,1120,508,205,-139
10:52:44.967,,-135,-680,760,-980,-1540,910,507,213,-142
10:52:44.986,,-137,-691,761,-1400,-1120,980,513,213,-138
10:52:45.005,,-132,-697,786,-350,-1330,840,510,207,-148
10:52:45.023,,-135,-684,773,-840,-1260,840,508,214,-144
10:52:45.042,,-126,-697,778,-840,-1260,560,495,213,-147
10:52:45.061,,-128,-711,787,-280,-1750,490,502,220,-147
10:52:45.080,,-136,-706,773,-700,-1610,350,490,213,-147
10:52:45.098,,-133,-711,769,-560,-1190,140,486,220,-139
10:52:45.117,,-128,-704,767,-210,-980,350,496,219,-132
10:52:45.136,,-122,-699,762,-420,-1260,-70,490,223,-124
10:52:45.155,,-130,-703,771,280,-1330,-70,490,214,-112
10:52:45.173,,-132,-713,797,980,-1680,280,490,205,-108
10:52:45.192,,-141,-713,790,140,-2100,700,504,207,-111
10:52:45.211,,-134,-686,765,-140,-2170,560,507,217,-115
10:52:45.230,,-129,-702,779,1050,-2170,770,501,219,-121
10:52:45.249,,-130,-697,784,770,-2100,770,507,211,-129
10:52:45.267,,-133,-719,793,-420,-1820,350,510,213,-130
10:52:45.286,,-136,-699,791,70,-2170,420,498,217,-130
10:52:45.305,,-133,-723,799,-350,-1820,70,508,220,-129
10:52:45.324,,-137,-690,782,140,-1820,700,501,217,-135
10:52:45.342,,-117,-717,783,-1050,-1260,350,508,222,-133
10:52:45.361,,-116,-710,803,1400,-1820,910,502,213,-135
10:52:45.380,,-132,-691,778,-350,-1820,350,498,219,-130
10:52:45.399,,-130,-704,782,-980,-1470,140,493,208,-133
10:52:45.417,,-124,-711,814,-70,-2100,560,484,210,-132
10:52:45.436,,-139,-697,784,-910,-2590,280,498,214,-129
10:52:45.455,,-132,-709,784,-280,-2450,910,501,208,-126
10:52:45.474,,-121,-705,792,-210,-2450,1470,510,211,-133
10:52:45.492,,-126,-708,783,-1470,-2100,1540,510,216,-132
10:52:45.511,,-126,-700,785,-1750,-1820,1120,507,222,-129
10:52:45.530,,-136,-726,804,-1050,-1750,1680,517,220,-129
10:52:45.549,,-136,-668,766,-1890,-1610,1190,514,225,-127
10:52:45.568,,-119,-722,804,-1610,-1400,1680,516,228,-129
10:52:45.586,,-125,-676,775,-1470,-1540,2730,519,226,-120
10:52:45.605,,-131,-690,778,-2170,-630,2170,517,222,-124
10:52:45.624,,-118,-726,837,1400,-1750,980,517,220,-127
10:52:45.643,,-138,-678,791,140,-1820,560,522,228,-124
10:52:45.661,,-139,-698,777,-1610,-700,420,517,219,-133
10:52:45.680,,-122,-698,800,770,-770,490,522,231,-126
10:52:45.699,,-130,-677,767,-560,-140,0,513,229,-135
10:52:45.718,,-126,-687,772,-1260,560,-980,511,229,-130
10:52:45.736,,-125,-724,807,-700,140,-1050,502,214,-124
10:52:45.755,,-137,-698,786,-2590,-280,-1400,504,226,-124
10:52:45.774,,-131,-711,781,-3990,-350,-1400,504,226,-124
10:52:45.793,,-129,-698,766,-2800,-980,-910,508,229,-120
10:52:45.812,,-124,-714,767,-1330,-1400,-420,514,225,-115
10:52:45.830,,-129,-705,774,-840,-1610,-490,504,226,-121
10:52:45.849,,-123,-709,780,-1190,-1680,-420,498,231,-118
10:52:45.868,,-121,-728,793,-980,-1960,-350,499,225,-124
10:52:45.887,,-122,-713,796,140,-2660,70,502,231,-117
10:52:45.905,,-131,-709,780,-350,-2940,350,496,237,-114
10:52:45.924,,-122,-706,782,490,-2870,1050,516,229,-118
10:52:45.943,,-120,-688,761,-630,-2310,770,511,231,-123
10:52:45.962,,-117,-697,782,70,-1680,770,504,223,-118
10:52:45.980,,-117,-722,812,980,-1680,630,501,225,-114
10:52:45.999,,-131,-710,794,280,-1820,630,501,214,-115
10:52:46.018,,-130,-670,758,-350,-1540,700,502,228,-120
10:52:46.037,,-123,-702,786,1050,-1260,1120,505,228,-114
10:52:46.056,,-123,-702,786,1750,-1330,1190,513,216,-121
10:52:46.074,,-128,-727,815,1750,-1330,1190,499,223,-117
10:52:46.093,,-137,-717,795,630,-1190,980,502,222,-123
10:52:46.112,,-131,-689,767,420,-1120,560,502,222,-123
10:52:46.131,,-127,-683,772,1190,-1120,210,510,228,-118
10:52:46.149,,-130,-705,786,70,-700,0,502,219,-129
10:52:46.168,,-134,-688,782,-1190,-490,-210,511,228,-126
10:52:46.187,,-129,-709,793,-1820,-420,-70,513,219,-127
10:52:46.206,,-120,-719,795,-840,-700,420,501,225,-121
10:52:46.224,,-125,-718,770,-1540,-490,840,501,220,-127
10:52:46.243,,-126,-713,777,-490,-280,1330,504,220,-130
10:52:46.262,,-131,-717,785,210,-280,1750,508,222,-127
10:52:46.281,,-138,-709,775,-630,-70,1820,519,220,-126
10:52:46.299,,-139,-661,750,-1190,-70,1470,505,208,-129
10:52:46.318,,-132,-708,787,-840,-140,1190,513,213,-127
10:52:46.337,,-124,-691,803,1890,-1400,980,508,213,-132
10:52:46.356,,-141,-711,788,490,-1820,840,508,214,-126
10:52:46.375,,-137,-700,772,-630,-1680,700,519,216,-130
10:52:46.393,,-130,-695,769,-1120,-1470,1330,519,223,-135
10:52:46.412,,-128,-692,773,-1120,-910,840,513,213,-142
10:52:46.431,,-127,-722,813,1330,-840,1120,522,207,-144
10:52:46.450,,-146,-691,785,1190,-910,700,507,199,-145
10:52:46.468,,-134,-681,771,-210,-630,210,516,208,-148
10:52:46.487,,-119,-682,784,210,-980,210,516,208,-145
10:52:46.506,,-121,-706,793,560,-1330,-350,514,213,-153
10:52:46.525,,-133,-679,773,700,-1470,-910,514,207,-171
10:52:46.543,,-129,-673,765,-70,-1050,-1190,519,214,-168
10:52:46.562,,-124,-678,778,420,-1050,-1260,496,210,-172
10:52:46.581,,-126,-677,770,-210,-980,-2100,499,213,-154
10:52:46.600,,-123,-716,808,980,-1400,-2030,495,211,-177
10:52:46.618,,-126,-709,808,140,-2170,-1400,499,217,-177
10:52:46.637,,-124,-686,760,-2100,-2100,-490,496,213,-186
10:52:46.656,,-117,-681,771,70,-2100,350,489,214,-183
10:52:46.675,,-124,-729,813,2100,-2240,1050,486,213,-183
10:52:46.694,,-133,-690,780,630,-1960,1260,486,213,-183
10:52:46.712,,-126,-635,733,-2730,-1050,350,480,207,-178
10:52:46.731,,-114,-664,775,-560,-910,140,475,211,-174
10:52:46.750,,-114,-679,801,70,-1260,-630,477,210,-172
10:52:46.769,,-123,-688,795,-1890,-980,-840,481,205,-180
10:52:46.787,,-116,-712,812,-1400,-1330,280,483,198,-184
10:52:46.806,,-126,-693,763,-2660,-1260,1190,478,201,-180
10:52:46.825,,-130,-695,745,-2380,140,2240,480,199,-169
10:52:46.844,,-123,-701,766,-210,1470,2590,489,202,-165
10:52:46.862,,-124,-693,761,-1120,2380,2240,492,202,-165
10:52:46.881,,-118,-676,754,-2380,2380,1120,483,201,-163
10:52:46.900,,-126,-688,769,-1890,1260,700,483,196,-177
10:52:46.919,,-137,-682,768,-1050,-70,70,480,186,-169
10:52:46.937,,-135,-708,780,-210,-700,630,475,187,-165
10:52:46.956,,-142,-665,740,-1050,-700,980,478,201,-163
10:52:46.975,,-129,-689,741,-1610,210,1050,477,198,-169
10:52:46.994,,-121,-721,803,420,70,1400,474,195,-154
10:52:47.013,,-152,-686,766,-1960,210,840,477,181,-165
10:52:47.031,,-154,-695,763,-2030,770,1330,484,184,-162
10:52:47.050,,-141,-694,775,-840,490,1890,487,186,-162
10:52:47.069,,-133,-700,752,-2100,630,1540,487,184,-160
10:52:47.088,,-114,-692,760,-910,420,980,508,198,-156
10:52:47.106,,-143,-719,776,-1260,-70,210,510,199,-166
10:52:47.125,,-149,-720,780,-1470,-490,-70,502,196,-174
10:52:47.144,,-128,-685,776,-700,-1470,420,496,205,-190
10:52:47.163,,-123,-695,782,770,-2590,1400,498,202,-181
10:52:47.181,,-135,-715,794,2100,-3500,1540,493,207,-168
10:52:47.200,,-157,-704,779,630,-3150,1400,496,210,-174
10:52:47.219,,-144,-674,777,-980,-2800,1120,495,210,-171
10:52:47.238,,-126,-701,808,-1540,-2800,1050,498,214,-174
10:52:47.256,,-129,-689,802,-770,-2870,420,495,213,-166
10:52:47.275,,-138,-683,773,-1680,-1890,-210,492,211,-171
10:52:47.294,,-119,-690,796,-980,-1120,140,489,214,-169
10:52:47.313,,-113,-710,809,-1400,-770,-140,495,217,-157
10:52:47.332,,-130,-734,816,-700,-280,70,496,222,-151
10:52:47.350,,-133,-713,788,-910,0,-490,493,220,-151
10:52:47.369,,-128,-704,792,140,-350,630,496,222,-153
10:52:47.388,,-134,-667,768,-350,-630,560,496,217,-151
10:52:47.407,,-134,-671,762,0,140,840,490,229,-153
10:52:47.425,,-117,-669,780,560,490,-70,501,235,-145
10:52:47.444,,-123,-657,776,-560,-70,-1260,496,235,-141
10:52:47.463,,-122,-670,783,-2380,-630,-2030,493,237,-142
10:52:47.482,,-124,-718,823,-1540,-1470,-1050,493,231,-139
10:52:47.500,,-139,-713,808,-1610,-1960,490,492,226,-133
10:52:47.519,,-144,-725,769,-2800,-1260,1680,496,234,-127
10:52:47.538,,-133,-697,750,-1820,-210,2940,498,225,-115
10:52:47.557,,-121,-683,749,-2170,910,2520,507,225,-117
10:52:47.575,,-112,-689,780,-1330,1120,1610,511,223,-130
10:52:47.594,,-119,-671,788,-490,140,560,510,223,-124
10:52:47.613,,-132,-678,784,-910,-1260,-280,508,228,-126
10:52:47.632,,-141,-678,778,-1120,-2380,-140,508,228,-126
10:52:47.651,,-135,-672,763,-1960,-2380,70,502,228,-130
10:52:47.669,,-121,-707,796,-350,-1890,980,510,240,-136
10:52:47.688,,-128,-675,756,-1610,-840,630,504,229,-138
10:52:47.707,,-123,-693,766,-2030,770,700,504,225,-139
10:52:47.726,,-122,-670,791,-1260,980,630,507,228,-133
10:52:47.744,,-136,-699,775,-2870,910,490,492,232,-135
10:52:47.763,,-131,-668,761,-1680,210,420,487,226,-142
10:52:47.782,,-133,-707,769,-1330,-70,910,496,232,-135
10:52:47.801,,-134,-708,759,-1400,-70,770,489,229,-133
10:52:47.819,,-128,-691,750,-1470,350,420,505,226,-129
10:52:47.838,,-128,-691,750,-1680,700,350,495,219,-133
10:52:47.857,,-133,-683,754,-1680,700,350,498,217,-129
10:52:47.876,,-124,-701,779,-1050,350,700,505,235,-118
10:52:47.894,,-131,-684,760,-1680,-70,840,511,231,-129
10:52:47.913,,-124,-672,761,-700,-560,770,522,235,-138
10:52:47.932,,-128,-698,788,210,-1470,1190,520,234,-133
10:52:47.951,,-144,-688,760,-1050,-1680,1050,522,238,-138
10:52:47.970,,-126,-694,772,-1190,-1400,1050,513,244,-133
10:52:47.988,,-126,-692,785,-630,-1750,1400,508,250,-127
10:52:48.007,,-133,-689,756,-2310,-1190,630,519,247,-123
10:52:48.026,,-127,-687,785,-910,-1120,980,511,247,-129
10:52:48.045,,-129,-701,794,-1120,-1260,840,508,240,-117
10:52:48.063,,-139,-704,778,-1050,-1190,700,508,240,-127
10:52:48.082,,-128,-699,783,-630,-840,490,508,240,-127
10:52:48.101,,-128,-699,782,-560,-700,1050,504,244,-118
10:52:48.120,,-127,-692,764,-2030,140,560,498,238,-126
10:52:48.138,,-118,-680,796,280,70,770,504,238,-126
10:52:48.157,,-145,-704,791,-490,-70,770,508,241,-127
10:52:48.176,,-141,-690,779,-490,-490,490,505,235,-118
10:52:48.195,,-142,-687,778,-840,-840,840,498,237,-120
10:52:48.213,,-129,-685,770,-1750,-700,630,499,229,-121
10:52:48.232,,-124,-716,801,-490,-630,980,505,226,-120
10:52:48.251,,-139,-687,771,-1260,-70,630,510,237,-112
10:52:48.270,,-130,-719,805,-1190,140,1190,510,237,-121
10:52:48.289,,-143,-690,788,-2100,-70,1120,516,231,-127
10:52:48.307,,-140,-691,769,-2520,280,1050,510,235,-129
10:52:48.326,,-125,-696,801,-210,-280,1400,516,241,-138
10:52:48.345,,-124,-708,792,-840,-700,770,520,250,-147
10:52:48.364,,-141,-693,786,-490,-1190,560,528,250,-156
10:52:48.382,,-139,-691,777,-1610,-1050,0,526,258,-147
10:52:48.401,,-128,-714,814,-770,-1120,700,516,249,-151
10:52:48.420,,-131,-651,766,-1750,-1120,350,508,250,-150
10:52:48.439,,-119,-682,775,-1540,-210,700,501,238,-148
10:52:48.457,,-116,-686,799,-350,-490,560,492,244,-132
10:52:48.476,,-137,-706,790,-2310,-490,-140,487,244,-136
10:52:48.495,,-141,-683,773,-2870,-490,-280,492,243,-138
10:52:48.514,,-124,-706,783,-2520,-210,210,493,240,-136
10:52:48.533,,-128,-689,771,-1260,-350,770,493,240,-136
10:52:48.551,,-131,-704,762,-1540,280,420,490,237,-124
10:52:48.570,,-127,-690,771,-700,560,840,492,235,-123
10:52:48.589,,-127,-681,761,-2030,700,560,487,243,-115
10:52:48.608,,-125,-672,768,-1960,490,490,496,234,-120
10:52:48.626,,-136,-688,783,-840,70,700,499,241,-123
10:52:48.645,,-140,-700,780,-630,-140,700,508,235,-121
10:52:48.664,,-131,-708,794,-70,-490,1190,499,235,-121
10:52:48.683,,-131,-657,724,-2310,-140,770,495,240,-123
10:52:48.701,,-107,-708,769,-1190,560,980,489,243,-127
10:52:48.720,,-126,-693,789,-560,140,420,502,243,-135
10:52:48.739,,-140,-695,759,-2660,280,350,495,250,-133
10:52:48.758,,-129,-685,779,-980,-420,700,505,240,-126
10:52:48.776,,-143,-685,760,-1260,-910,1260,501,246,-124
10:52:48.795,,-133,-703,769,-1050,-910,1120,504,243,-124
10:52:48.814,,-121,-674,780,70,-1260,1330,502,253,-126
10:52:48.833,,-131,-674,757,-1400,-910,1050,510,250,-142
10:52:48.852,,-118,-681,786,-420,-700,560,492,256,-135
10:52:48.870,,-144,-697,805,70,-910,700,496,247,-142
10:52:48.889,,-154,-683,774,-1050,-630,70,492,256,-135
10:52:48.908,,-120,-697,791,-630,-280,630,498,240,-127
10:52:48.927,,-117,-664,771,-700,-280,700,498,253,-126
10:52:48.945,,-129,-703,778,-1050,630,280,492,249,-129
10:52:48.964,,-134,-725,815,560,770,490,501,253,-123
10:52:48.983,,-138,-698,786,-490,420,490,492,252,-123
10:52:49.002,,-137,-681,770,-840,70,420,487,249,-121
10:52:49.020,,-128,-703,793,420,-420,770,487,237,-112
10:52:49.039,,-133,-695,789,210,-1050,700,489,240,-117
10:52:49.058,,-135,-672,774,-1050,-1260,140,481,246,-130
10:52:49.077,,-130,-702,801,-210,-1470,420,487,243,-99
10:52:49.095,,-132,-698,798,70,-2030,420,492,235,-108
10:52:49.114,,-137,-668,773,-1330,-1400,420,498,219,-91
10:52:49.133,,-127,-698,804,-910,-1050,1120,510,213,-84
10:52:49.152,,-140,-703,817,-210,-1260,1400,507,201,-88
10:52:49.170,,-156,-671,768,-2240,-350,910,514,202,-114
10:52:49.189,,-124,-695,790,-2240,700,560,522,201,-144
10:52:49.208,,-115,-714,825,-630,140,1050,529,214,-171
10:52:49.227,,-144,-674,760,-3150,420,-280,519,231,-201
10:52:49.246,,-134,-695,787,-1680,1050,-70,505,243,-204
10:52:49.264,,-128,-698,805,-980,770,560,510,244,-195
10:52:49.283,,-132,-668,747,-3500,1330,0,513,250,-180
10:52:49.302,,-109,-669,781,-1050,1330,420,520,253,-184
10:52:49.321,,-124,-718,817,280,420,770,528,255,-172
10:52:49.339,,-153,-705,781,-1400,70,280,525,262,-175
10:52:49.358,,-143,-645,745,-2380,140,280,522,271,-168
10:52:49.377,,-110,-684,788,-630,-280,1400,519,280,-151
10:52:49.396,,-122,-662,769,-490,-840,770,514,277,-136
10:52:49.414,,-135,-686,765,-1610,-350,140,519,273,-124
10:52:49.433,,-145,-674,768,-1540,-420,70,513,262,-109
10:52:49.452,,-138,-700,776,-3150,-490,-210,513,262,-109
10:52:49.471,,-128,-684,777,-2380,-490,350,510,265,-103
10:52:49.489,,-116,-689,773,-1330,-490,840,504,258,-106
10:52:49.508,,-125,-700,785,630,-700,1540,513,253,-97
10:52:49.527,,-136,-684,771,-350,-420,980,504,258,-103
10:52:49.546,,-138,-672,759,-1610,0,910,507,255,-105
10:52:49.565,,-133,-658,762,-1610,210,910,505,255,-100
10:52:49.583,,-129,-667,775,-980,70,840,505,250,-105
10:52:49.602,,-119,-673,786,-840,-350,700,507,244,-106
10:52:49.621,,-119,-673,786,-1330,-420,420,504,259,-111
10:52:49.640,,-133,-674,779,-1330,-420,420,511,262,-121
10:52:49.658,,-146,-681,772,-1470,-420,490,504,265,-120
10:52:49.677,,-135,-680,766,-1680,-350,420,504,270,-129
10:52:49.696,,-117,-669,753,-2100,0,700,502,267,-126
10:52:49.715,,-113,-706,785,-910,-140,630,501,265,-124
10:52:49.733,,-135,-681,749,-1750,70,140,499,267,-121
10:52:49.752,,-136,-702,789,-1050,350,560,496,262,-121
10:52:49.771,,-148,-716,815,-700,-420,1260,502,268,-117
10:52:49.790,,-153,-682,747,-2450,-210,1470,489,265,-108
10:52:49.808,,-123,-661,755,-490,70,1750,501,262,-109
10:52:49.827,,-124,-682,792,560,-70,2170,493,262,-100
10:52:49.846,,-135,-697,793,-910,280,910,492,256,-97
10:52:49.865,,-145,-678,793,-630,280,560,490,256,-106
10:52:49.884,,-152,-673,779,-1400,280,-70,492,253,-102
10:52:49.902,,-148,-694,792,-1190,70,560,493,253,-106
10:52:49.921,,-134,-690,779,-2100,770,350,493,249,-112
10:52:49.940,,-122,-688,790,-840,700,770,486,252,-109
10:52:49.959,,-138,-719,796,-1050,630,420,486,256,-112
10:52:49.977,,-148,-675,758,-2100,770,-350,492,249,-111
10:52:49.996,,-142,-656,765,-2520,770,0,486,249,-117
10:52:50.015,,-130,-713,814,-910,140,420,487,252,-126
10:52:50.034,,-141,-683,779,-770,-770,350,492,252,-115
10:52:50.052,,-135,-667,747,-1820,-630,-210,475,241,-115
10:52:50.071,,-134,-699,790,-630,-1120,140,489,247,-114
10:52:50.090,,-148,-722,802,-2030,-1050,350,492,237,-118
10:52:50.109,,-146,-669,775,-2170,-560,560,504,252,-115
10:52:50.127,,-123,-678,776,-2240,70,1540,502,253,-117
10:52:50.146,,-115,-698,804,-1470,70,1960,508,256,-124
10:52:50.165,,-139,-676,770,-2660,560,1400,505,259,-124
10:52:50.184,,-135,-686,776,-2030,1400,1540,496,255,-115
10:52:50.203,,-125,-705,826,210,630,2100,496,261,-117
10:52:50.221,,-142,-691,786,-2730,280,1610,487,262,-121
10:52:50.240,,-135,-688,764,-2240,560,2100,501,258,-118
10:52:50.259,,-132,-671,768,-280,770,2450,487,262,-108
10:52:50.278,,-131,-688,787,140,910,2520,489,259,-99
10:52:50.296,,-137,-674,772,-910,1330,2170,483,249,-81
10:52:50.315,,-136,-676,768,-1680,1680,1960,493,234,-78
10:52:50.334,,-139,-675,785,-1050,840,1890,496,240,-73
10:52:50.353,,-154,-684,777,-2450,280,1610,502,229,-87
10:52:50.371,,-165,-680,766,-3010,140,2100,502,229,-87
10:52:50.390,,-162,-705,799,-2940,-140,2590,511,219,-111
10:52:50.409,,-151,-726,834,-3780,-630,3360,516,240,-145
10:52:50.428,,-154,-714,800,-9450,-280,3710,505,252,-156
10:52:50.446,,-157,-734,788,-12390,560,5670,510,264,-165
10:52:50.465,,-162,-734,801,-11270,1610,8610,501,277,-162
10:52:50.484,,-157,-761,816,-11480,3780,11130,504,280,-171
10:52:50.503,,-169,-761,814,-7910,5110,12810,501,288,-160
10:52:50.522,,-179,-761,806,-4550,6580,15260,499,289,-153
10:52:50.540,,-189,-745,800,-5180,7910,16870,498,304,-142
10:52:50.559,,-186,-717,795,-6510,8680,19040,475,298,-130
10:52:50.578,,-182,-706,795,-7910,8960,21140,481,312,-117
10:52:50.597,,-194,-717,778,-6930,8820,23590,477,309,-93
10:52:50.615,,-212,-735,770,-3570,8050,24640,468,304,-79
10:52:50.634,,-231,-732,784,2870,6020,24010,465,288,-72
10:52:50.653,,-242,-715,798,8400,3150,22330,459,294,-54
10:52:50.672,,-253,-697,786,10990,910,22540,457,306,-54
10:52:50.690,,-265,-703,772,10220,-280,23590,457,298,-52
10:52:50.709,,-284,-679,756,7980,-1330,23520,460,300,-57
10:52:50.728,,-309,-700,732,-3150,-1400,24640,465,291,-64
10:52:50.747,,-336,-710,712,-17150,-2380,24710,465,289,-58
10:52:50.765,,-345,-707,705,-30800,-3640,26250,457,294,-51
10:52:50.784,,-351,-720,699,-41440,-5390,28350,469,295,-54
10:52:50.803,,-347,-735,671,-45290,-7420,31150,459,310,-72
10:52:50.822,,-344,-754,644,-36540,-10080,33880,457,313,-79
10:52:50.841,,-356,-730,632,-17220,-13650,34930,445,318,-90
10:52:50.859,,-365,-718,645,1960,-16520,36470,447,325,-91
10:52:50.878,,-359,-689,673,11830,-19180,35630,444,327,-88
10:52:50.897,,-343,-644,680,9520,-21350,33110,445,339,-94
10:52:50.916,,-329,-608,672,-280,-23450,29470,447,343,-93
10:52:50.934,,-313,-572,635,-9940,-25970,25830,442,351,-90
10:52:50.953,,-283,-605,617,-14210,-29190,22260,439,354,-84
10:52:50.972,,-253,-608,634,-9030,-31640,19600,438,349,-84
10:52:50.991,,-244,-613,665,-6090,-32620,17150,439,348,-76
10:52:51.009,,-236,-630,692,-8960,-32270,14350,435,349,-84
10:52:51.028,,-232,-651,712,-14560,-31640,11760,432,363,-82
10:52:51.047,,-229,-688,719,-19740,-31080,9940,430,354,-85
10:52:51.066,,-226,-710,724,-22330,-30800,8540,433,355,-87
10:52:51.084,,-223,-719,725,-22820,-31360,8470,423,349,-84
10:52:51.103,,-213,-742,715,-21770,-32690,9590,429,343,-84
10:52:51.122,,-203,-774,733,-16940,-34370,11130,418,342,-100
10:52:51.141,,-186,-785,769,-10080,-36470,12600,427,349,-102
10:52:51.159,,-165,-793,814,-4270,-38500,13300,421,340,-111
10:52:51.178,,-156,-805,843,2660,-41510,12390,417,346,-111
10:52:51.197,,-146,-775,836,9520,-45360,9940,421,339,-117
10:52:51.216,,-149,-712,812,17080,-49000,7770,420,337,-129
10:52:51.235,,-92,-723,797,21140,-53830,6860,412,336,-132
10:52:51.253,,-77,-602,840,25550,-55230,7350,415,339,-145
10:52:51.272,,14,-645,1026,24220,-40740,3290,414,339,-153
10:52:51.291,,0,-635,956,26810,-31360,3920,414,339,-153
10:52:51.310,,-1,-643,820,24570,-24920,5460,423,337,-160
10:52:51.328,,0,-644,823,20300,-21420,10080,412,337,-156
10:52:51.347,,13,-651,853,17990,-18760,10920,411,331,-157
10:52:51.366,,20,-668,860,26040,-15050,10220,411,336,-168
10:52:51.385,,20,-659,871,45640,-13790,7560,411,336,-178
10:52:51.403,,20,-659,871,45640,-9100,4340,414,333,-177
10:52:51.422,,12,-509,838,64470,-9100,4340,409,324,-190
10:52:51.441,,-13,-395,770,51800,-1960,980,411,334,-187
10:52:51.460,,-42,-435,766,15330,2870,-1190,406,328,-193
10:52:51.478,,-54,-532,761,-15330,2030,-2310,406,331,-187
10:52:51.497,,-20,-625,729,-35070,-630,-770,409,333,-202
10:52:51.516,,-127,-782,792,-36120,7070,5530,397,328,-198
10:52:51.535,,-112,-627,805,-28280,6790,-3920,397,331,-193
10:52:51.554,,-137,-593,777,-37870,10780,-280,406,336,-180
10:52:51.572,,-138,-589,764,-52850,13370,1610,406,319,-171
10:52:51.591,,-161,-595,780,-66850,16170,840,415,322,-166
10:52:51.610,,-159,-661,750,-76020,16660,560,412,318,-154
10:52:51.629,,-182,-728,724,-73360,19040,-1890,412,319,-148
10:52:51.647,,-181,-747,723,-58660,21280,-4130,420,319,-136
10:52:51.666,,-187,-732,712,-45500,22120,-3850,420,327,-136
10:52:51.685,,-202,-761,691,-38850,20300,-2310,417,324,-120
10:52:51.704,,-219,-770,653,-33110,15540,-3430,423,328,-121
10:52:51.722,,-208,-771,665,-25970,10920,-3990,418,328,-121
10:52:51.741,,-187,-767,687,-15610,6650,-5740,420,327,-120
10:52:51.760,,-177,-763,701,-4900,4480,-5250,420,334,-115
10:52:51.779,,-174,-736,696,-770,3710,-5180,426,336,-102
10:52:51.798,,-164,-748,716,-1190,3640,-5320,423,325,-105
10:52:51.816,,-155,-765,730,-3150,4340,-6090,421,333,-103
10:52:51.835,,-162,-775,726,-4620,5530,-7000,426,337,-100
10:52:51.854,,-167,-774,705,-4620,6580,-7770,430,337,-111
10:52:51.873,,-170,-748,680,-4550,6860,-7770,429,324,-106
10:52:51.891,,-175,-768,677,-5250,6440,-6510,426,339,-106
10:52:51.910,,-183,-770,694,-3780,5950,-5390,424,333,-100
10:52:51.929,,-191,-756,704,-1610,7210,-5810,423,339,-94
10:52:51.948,,-199,-749,701,-2520,9170,-5320,432,342,-88
10:52:51.966,,-193,-728,705,-3710,11690,-4480,424,334,-102
10:52:51.985,,-189,-690,707,-4900,15120,-4620,429,336,-99
10:52:52.004,,-177,-747,677,-7630,17430,-5530,430,333,-81
10:52:52.023,,-162,-757,691,-6160,17850,-5460,438,334,-88
10:52:52.041,,-172,-748,709,-5180,17780,-6370,426,334,-87
10:52:52.060,,-195,-764,685,-6930,16590,-7560,424,333,-90
10:52:52.079,,-216,-766,631,-10430,13510,-8820,427,339,-82
10:52:52.098,,-225,-792,600,-13580,9870,-8750,426,331,-90
10:52:52.117,,-222,-832,613,-11200,7000,-6510,424,336,-76
10:52:52.135,,-209,-833,642,-6930,4130,-7700,423,330,-75
10:52:52.154,,-198,-861,685,-5040,3220,-5600,412,336,-67
10:52:52.173,,-220,-861,699,-3850,3920,-2660,412,336,-67
10:52:52.192,,-239,-853,718,-490,3430,-1750,421,324,-67
10:52:52.210,,-227,-833,754,7490,2380,-1400,417,330,-63
10:52:52.229,,-221,-839,776,19600,2100,-560,415,321,-52
10:52:52.248,,-233,-905,834,42840,560,2450,417,330,-60
10:52:52.267,,-224,-952,937,84560,-2590,6790,417,325,-69
10:52:52.285,,-215,-928,1005,138600,-6230,3710,411,321,-70
10:52:52.304,,-195,-846,1028,199710,-9450,2520,423,318,-84
10:52:52.323,,-223,-729,1019,261450,-9870,-3850,427,301,-105
10:52:52.342,,-204,-590,1019,320040,-10850,-13720,433,292,-141
10:52:52.360,,-187,-342,1059,368970,-9170,-22120,417,279,-195
10:52:52.379,,-131,-108,1088,384650,-3990,-32550,393,270,-261
10:52:52.398,,-193,98,1122,359170,7840,-40950,348,291,-318
10:52:52.417,,-159,161,1113,292950,9660,-45010,297,298,-346
10:52:52.436,,-151,274,1053,204470,15680,-46760,268,306,-352
10:52:52.454,,-189,244,994,110460,24850,-49280,258,312,-348
10:52:52.473,,-233,154,893,46200,28770,-50400,250,304,-348
10:52:52.492,,-262,56,799,19320,25270,-49140,270,310,-342
10:52:52.511,,-270,-122,767,22680,15190,-50400,274,327,-337
10:52:52.529,,-228,-169,826,47320,2730,-58450,276,325,-342
10:52:52.548,,-210,-156,913,70910,-8260,-66010,279,324,-336
10:52:52.567,,-184,-72,886,83860,-18550,-68250,279,328,-330
10:52:52.586,,-191,-108,826,76930,-23030,-62580,297,307,-328
10:52:52.604,,-124,-223,879,68110,-29610,-49840,306,297,-325
10:52:52.623,,-84,-194,982,57050,-30240,-35490,313,280,-318
10:52:52.642,,-82,-103,1065,42490,-24360,-22960,316,274,-319
10:52:52.661,,-82,-113,1066,26460,-17290,-11830,321,274,-325
10:52:52.679,,-106,-52,1023,14490,-10570,-3010,316,268,-331
10:52:52.698,,-131,-2,988,4620,-5250,1680,321,268,-346
10:52:52.717,,-135,27,1003,-280,-1890,4550,327,271,-352
10:52:52.736,,-141,98,1018,-1330,1120,5530,316,273,-363
10:52:52.755,,-161,131,998,-4060,3710,5460,313,276,-372
10:52:52.773,,-170,159,1003,-5530,4340,5390,303,276,-372
10:52:52.792,,-185,191,982,-6440,4270,4690,303,277,-373
10:52:52.811,,-194,192,978,-7280,3010,3570,295,279,-382
10:52:52.830,,-177,190,1027,-6650,630,2800,292,288,-379
10:52:52.848,,-171,186,1072,-5600,-910,2730,297,285,-375
10:52:52.867,,-170,183,1076,-4130,-2030,3150,288,286,-382
10:52:52.886,,-174,203,1060,-2590,-2520,3220,291,294,-393
10:52:52.905,,-167,204,1078,350,-2450,3290,285,289,-391
10:52:52.923,,-155,223,1102,2030,-1260,2940,294,300,-384
10:52:52.942,,-161,208,1095,980,770,2170,295,289,-382
10:52:52.961,,-165,189,1082,560,2100,840,303,283,-384
10:52:52.980,,-175,183,1067,910,2730,-560,289,285,-384
10:52:52.998,,-175,166,1068,2660,2030,-1260,297,286,-391
10:52:53.017,,-170,160,1050,4900,1120,-1260,285,286,-390
10:52:53.036,,-162,150,1023,6230,490,-1190,288,289,-393
10:52:53.055,,-149,155,1018,6580,280,-1400,285,283,-385
10:52:53.074,,-151,152,1006,5110,1120,-1750,283,282,-397
10:52:53.092,,-161,146,996,3500,1470,-1400,283,282,-397
10:52:53.111,,-162,143,1007,3500,1330,-700,273,277,-390
10:52:53.130,,-170,151,1005,3780,1540,-210,280,274,-385
10:52:53.149,,-175,163,992,3360,1610,-560,274,271,-385
10:52:53.167,,-179,163,983,2590,1680,-1260,273,282,-391
10:52:53.186,,-179,163,983,2590,1680,-1260,274,271,-388
10:52:53.205,,-180,170,990,1400,1820,-2100,268,276,-393
10:52:53.224,,-182,168,996,-700,2030,-2800,271,285,-396
10:52:53.242,,-184,174,1007,-2310,1750,-3290,270,279,-399
10:52:53.261,,-190,168,1019,-3010,350,-3080,261,291,-388
10:52:53.280,,-195,175,1026,-2590,-1610,-2030,268,288,-402
10:52:53.299,,-200,177,1020,-1050,-3220,-560,268,288,-394
10:52:53.317,,-197,200,1032,1820,-3920,770,279,282,-396
10:52:53.336,,-182,203,1059,3290,-3920,1330,274,282,-387
