Sensors' Acquisition [Hz]: Acc@52.0 Gyro@52.0 Mag@52.0 
hh:mm:ss.ms, Annotation , AccX [mg], AccY, AccZ, GyroX [mdps], GyroY, GyroZ, MagX [mgauss], MagY, MagZ
13:25:54.418,,-95,0,1066,-1960,3500,4620,366,-36,-136
13:25:54.437,,-97,10,1060,-1960,4200,4550,367,-37,-133
13:25:54.455,,-98,16,1059,-1260,4270,4690,369,-33,-136
13:25:54.474,,-101,22,1058,-980,3920,4200,369,-28,-138
13:25:54.493,,-90,11,1060,-700,3430,3360,363,-37,-144
13:25:54.512,,-89,10,1054,210,2520,3570,369,-33,-135
13:25:54.531,,-83,8,1052,980,2310,3150,372,-40,-135
13:25:54.549,,-79,8,1051,1190,2590,2240,369,-33,-142
13:25:54.568,,-79,11,1050,1120,3080,1890,369,-33,-138
13:25:54.587,,-82,6,1042,70,3150,1470,370,-36,-135
13:25:54.606,,-81,5,1036,0,2940,840,366,-28,-133
13:25:54.625,,-87,2,1031,560,2800,350,363,-27,-135
13:25:54.643,,-91,6,1027,700,2380,-210,364,-31,-133
13:25:54.662,,-98,4,1027,140,2030,-840,376,-30,-133
13:25:54.681,,-102,0,1030,-280,1400,-1190,366,-36,-138
13:25:54.700,,-107,-2,1027,-280,630,-1540,370,-21,-133
13:25:54.719,,-110,0,1028,-70,0,-1960,367,-25,-130
13:25:54.737,,-115,1,1026,-630,-490,-2380,369,-24,-133
13:25:54.756,,-122,-6,1031,-1260,-1050,-2800,370,-34,-142
13:25:54.775,,-128,-10,1034,-1190,-1750,-2940,372,-33,-132
13:25:54.794,,-126,-11,1043,-910,-2590,-2520,373,-42,-141
13:25:54.813,,-124,-9,1051,-980,-3010,-2170,372,-33,-141
13:25:54.831,,-122,-11,1061,-1260,-2730,-1820,364,-34,-139
13:25:54.850,,-119,-11,1068,-1260,-2030,-1400,369,-31,-129
13:25:54.869,,-118,-12,1069,-1330,-1050,-910,369,-37,-133
13:25:54.888,,-119,-14,1066,-1470,-70,-420,367,-28,-136
13:25:54.907,,-120,-15,1062,-1260,490,0,367,-34,-130
13:25:54.925,,-126,-13,1057,-1050,630,350,372,-31,-144
13:25:54.944,,-124,-11,1053,-700,350,630,369,-31,-133
13:25:54.963,,-121,-10,1053,-210,-70,1050,367,-33,-138
13:25:54.982,,-116,-4,1050,70,-350,980,370,-22,-130
13:25:55.001,,-111,-2,1047,140,-350,840,363,-34,-126
13:25:55.019,,-109,-2,1051,-140,70,630,363,-34,-126
13:25:55.038,,-110,-7,1051,-490,490,350,373,-33,-133
13:25:55.057,,-115,-7,1046,-490,560,210,364,-39,-147
13:25:55.076,,-117,-7,1048,-280,350,280,366,-28,-135
13:25:55.095,,-114,-7,1047,-280,0,350,366,-28,-144
13:25:55.113,,-112,-9,1050,-140,0,420,367,-27,-144
13:25:55.132,,-112,-8,1048,-140,0,210,358,-25,-130
13:25:55.151,,-114,-7,1047,-70,210,280,366,-31,-139
13:25:55.170,,-117,-4,1050,-210,280,490,363,-33,-130
13:25:55.189,,-115,-6,1051,-490,140,350,369,-42,-135
13:25:55.207,,-117,-3,1055,70,-70,490,369,-28,-138
13:25:55.226,,-116,0,1060,560,-140,490,372,-31,-135
13:25:55.245,,-112,3,1060,420,210,420,375,-27,-133
13:25:55.264,,-114,2,1060,140,980,280,373,-25,-139
13:25:55.283,,-120,1,1058,-70,1540,210,366,-31,-133
13:25:55.301,,-124,-5,1056,210,1610,140,379,-31,-129
13:25:55.315,>gest9_down,,,,,,,,,
13:25:55.320,,-125,-2,1059,980,1330,210,367,-33,-133
13:25:55.339,,-124,0,1064,1470,1050,350,369,-25,-133
13:25:55.358,,-124,0,1060,1680,910,280,363,-31,-136
13:25:55.377,,-126,0,1060,2030,1190,420,367,-27,-133
13:25:55.395,,-125,5,1063,2030,1610,140,373,-30,-138
13:25:55.414,,-124,2,1063,2030,2030,-280,367,-25,-142
13:25:55.433,,-121,2,1060,2380,2170,-560,364,-22,-139
13:25:55.452,,-121,3,1054,2870,2380,-770,369,-30,-135
13:25:55.471,,-122,4,1050,2660,2660,-560,372,-28,-133
13:25:55.489,,-123,1,1041,2240,2660,-560,376,-28,-135
13:25:55.508,,-129,6,1043,2660,2590,-490,357,-30,-135
13:25:55.527,,-129,13,1051,2800,2240,-630,363,-28,-141
13:25:55.546,,-129,13,1051,2800,2240,-630,364,-33,-142
13:25:55.564,,-134,18,1055,2800,2170,-630,367,-22,-138
13:25:55.583,,-134,22,1051,2520,2240,-1470,367,-24,-135
13:25:55.602,,-136,26,1050,2590,2450,-1610,364,-36,-138
13:25:55.621,,-131,27,1043,2170,3150,-2310,375,-39,-145
13:25:55.640,,-133,18,1032,1260,3920,-3010,363,-31,-145
13:25:55.658,,-134,8,1015,280,4130,-3710,369,-30,-139
13:25:55.677,,-136,2,992,-980,3780,-3920,363,-21,-141
13:25:55.696,,-140,-5,973,-2380,3010,-3710,367,-34,-141
13:25:55.715,,-138,-6,952,-3990,1400,-3640,367,-30,-136
13:25:55.734,,-136,-1,942,-5110,-770,-3290,366,-31,-142
13:25:55.752,,-130,12,924,-6370,-3080,-3710,375,-33,-142
13:25:55.771,,-120,26,890,-7980,-5250,-5110,369,-34,-133
13:25:55.790,,-104,43,822,-11410,-6230,-7840,366,-31,-138
13:25:55.809,,-98,49,722,-17640,-6510,-11550,366,-36,-138
13:25:55.828,,-104,38,612,-26810,-8610,-16030,367,-30,-136
13:25:55.846,,-107,20,504,-38360,-14420,-20510,367,-42,-117
13:25:55.865,,-140,-19,416,-48090,-25270,-25060,373,-43,-123
13:25:55.884,,-163,-46,382,-52850,-45780,-30100,375,-43,-109
13:25:55.903,,-137,-65,396,-54880,-72310,-35980,370,-51,-105
13:25:55.922,,-104,-34,450,-56700,-102130,-41230,372,-58,-91
13:25:55.940,,-36,-93,518,-63350,-134890,-47250,369,-57,-81
13:25:55.959,,95,-286,651,-70350,-171710,-58310,367,-75,-64
13:25:55.978,,250,-406,804,-62440,-210560,-70770,375,-75,-55
13:25:55.997,,427,-415,887,-39900,-237370,-73500,366,-79,-40
13:25:56.016,,610,-475,910,-9660,-243670,-59640,366,-75,-36
13:25:56.034,,736,-428,1118,15190,-239680,-38920,366,-75,-36
13:25:56.053,,954,-251,1317,8120,-219800,-30940,364,-85,-24
13:25:56.072,,1002,-234,1391,-18480,-182490,-15260,367,-79,-13
13:25:56.091,,986,-313,1492,-35840,-148960,-420,370,-69,-1
13:25:56.110,,1039,-171,1546,-30450,-119210,3010,366,-66,-1
13:25:56.128,,1259,440,1884,-60130,-61810,-6230,369,-66,10
13:25:56.147,,974,-395,1915,-101990,17150,1680,364,-61,16
13:25:56.166,,735,-181,1575,-35000,39620,-2940,360,-57,19
13:25:56.185,,529,-130,1208,4900,38220,-8050,357,-66,16
13:25:56.204,,555,-188,1035,12460,22470,0,367,-58,13
13:25:56.222,,597,-148,1021,15400,14840,10150,361,-54,10
13:25:56.241,,636,-346,1046,8820,15680,17500,364,-66,10
13:25:56.260,,666,-309,1095,13370,21140,14910,363,-61,9
13:25:56.279,,678,-250,1234,32480,34230,10500,367,-60,3
13:25:56.298,,724,-204,1379,42770,49140,10360,358,-78,0
13:25:56.316,,767,-252,1461,38500,66080,12110,364,-70,-10
13:25:56.335,,819,-329,1510,38850,83510,17290,363,-78,-21
13:25:56.354,,833,-361,1520,47180,103040,22820,367,-78,-31
13:25:56.373,,801,-300,1470,57820,123900,27160,361,-75,-46
13:25:56.392,,731,-257,1376,64260,144270,31430,370,-79,-51
13:25:56.410,,644,-209,1253,67060,160720,33530,370,-64,-61
13:25:56.429,,539,-163,1112,67900,173110,35420,373,-70,-76
13:25:56.448,,429,-117,994,65520,181230,37100,367,-67,-97
13:25:56.467,,319,-60,890,59150,183050,38570,367,-54,-100
13:25:56.486,,254,-82,757,47460,180110,38010,369,-58,-109
13:25:56.504,,138,-25,663,38850,174090,36890,367,-52,-124
13:25:56.523,,37,-5,603,34020,164360,34930,373,-40,-132
13:25:56.542,,35,-74,495,26950,150710,26320,369,-31,-135
13:25:56.561,,-53,-40,419,27510,136710,22680,376,-25,-144
13:25:56.579,,-138,-46,390,29330,120330,17920,361,-18,-148
13:25:56.598,,-187,-38,416,30030,99960,13020,366,-18,-159
13:25:56.617,,-209,-40,429,31850,77000,9380,370,-18,-156
13:25:56.636,,-233,-5,430,32690,56560,4760,358,-12,-162
13:25:56.655,,-243,25,425,29120,39060,2030,366,-15,-160
13:25:56.673,,-262,22,485,21700,25270,2940,364,-18,-166
13:25:56.692,,-280,11,581,12250,13510,4200,366,-12,-168
13:25:56.711,,-294,14,715,6580,3010,6580,360,-9,-160
13:25:56.730,,-302,33,828,4970,-5390,8470,364,-6,-162
13:25:56.749,,-317,71,868,3010,-10360,6790,360,-3,-165
13:25:56.767,,-326,106,861,140,-11900,3500,367,-6,-159
13:25:56.786,,-336,101,883,-1820,-10430,1750,360,-15,-169
13:25:56.805,,-336,108,950,-4270,-8470,630,361,-13,-159
13:25:56.824,,-336,78,1015,-7630,-7000,280,360,-9,-153
13:25:56.843,,-341,59,1046,-9520,-6790,-350,358,-10,-163
13:25:56.861,,-336,40,1053,-9870,-7840,-1680,367,-10,-154
13:25:56.880,,-331,39,1060,-8680,-9450,-2170,363,-9,-157
13:25:56.899,,-313,38,1076,-6720,-10990,-1470,361,-13,-156
13:25:56.918,,-294,45,1091,-4270,-10850,-840,363,-13,-159
13:25:56.937,,-282,57,1092,-3220,-9450,-910,369,-9,-163
13:25:56.955,,-273,60,1098,-3640,-7700,-980,363,-7,-154
13:25:56.974,,-261,54,1101,-4830,-5670,-980,364,-10,-151
13:25:56.993,,-256,46,1084,-6020,-3780,-1120,363,-13,-150
13:25:57.012,,-254,36,1062,-5740,-2520,-840,369,-9,-160
13:25:57.031,,-257,37,1050,-4340,-2100,-280,369,-10,-150
13:25:57.049,,-259,38,1045,-2730,-2310,140,370,-9,-150
13:25:57.068,,-262,43,1031,-1540,-3010,-280,370,-9,-150
13:25:57.087,,-259,41,1024,-420,-3710,-980,366,-7,-147
13:25:57.106,,-256,44,1014,70,-4200,-1680,364,-13,-151
13:25:57.125,,-254,39,1003,-210,-3850,-1820,364,-15,-148
13:25:57.143,,-250,34,1010,-980,-3290,-1820,366,-15,-159
13:25:57.162,,-256,25,1010,-2170,-2800,-2030,372,-15,-148
13:25:57.181,,-259,13,1014,-2450,-2520,-2100,370,-4,-153
13:25:57.200,,-260,13,1017,-2170,-3080,-2170,366,-12,-154
13:25:57.219,,-255,15,1018,-2310,-3570,-2030,369,-12,-156
13:25:57.237,,-254,23,1012,-2800,-3710,-1610,358,-15,-151
13:25:57.256,,-256,18,1018,-3430,-3780,-1260,367,-12,-145
13:25:57.275,,-254,15,1028,-3220,-3920,-1050,364,-15,-156
13:25:57.294,,-256,14,1041,-2590,-4130,-700,385,-13,-150
13:25:57.313,,-252,18,1046,-2100,-4550,-630,364,-18,-154
13:25:57.331,,-244,18,1046,-1820,-4690,-630,360,-16,-159
13:25:57.350,,-244,22,1046,-1820,-4690,-630,363,-12,-147
13:25:57.369,,-240,28,1040,-1680,-4340,-630,366,-15,-159
13:25:57.388,,-239,29,1037,-1820,-3640,-630,361,-18,-144
13:25:57.406,,-238,25,1041,-2240,-3010,-420,366,-25,-148
13:25:57.425,,-235,20,1045,-2240,-2660,-420,364,-12,-153
13:25:57.444,,-234,20,1044,-1680,-2380,-770,366,-15,-156
13:25:57.463,,-230,16,1037,-1050,-2240,-1120,366,-13,-157
13:25:57.482,,-227,15,1033,-350,-2030,-1190,363,-16,-151
13:25:57.500,,-225,18,1032,70,-1750,-980,366,-15,-150
13:25:57.519,,-226,17,1030,-280,-1330,-770,367,-21,-153
13:25:57.538,,-232,17,1030,-910,-1120,-840,370,-10,-144
13:25:57.557,,-236,16,1025,-1050,-1260,-1120,360,-16,-157
13:25:57.576,,-236,16,1026,-560,-1400,-1190,366,-9,-145
13:25:57.594,,-232,19,1030,-350,-1330,-1120,357,-19,-142
13:25:57.613,,-233,17,1017,-910,-910,-910,364,-15,-153
13:25:57.632,,-237,11,1022,-1190,-350,-560,370,-15,-136
13:25:57.651,,-242,8,1024,-1330,-420,-280,361,-18,-148
13:25:57.670,,-241,7,1031,-1330,-1050,0,367,-18,-144
13:25:57.688,,-237,14,1028,-840,-1540,70,367,-13,-147
13:25:57.707,,-236,21,1027,-560,-1330,140,369,-10,-153
13:25:57.726,,-239,26,1028,-1050,-980,210,373,-10,-150
13:25:57.745,,-242,20,1033,-1330,-770,420,372,-16,-145
13:25:57.764,,-241,24,1033,-980,-910,280,373,-13,-156
13:25:57.782,,-236,25,1028,-910,-980,-140,373,-10,-145
13:25:57.801,,-236,23,1024,-1330,-840,-350,369,-12,-153
13:25:57.820,,-241,19,1016,-1750,-1050,-490,369,-18,-139
13:25:57.839,,-242,15,1020,-1400,-1750,-560,372,-4,-157
13:25:57.858,,-237,17,1026,-840,-2380,-630,366,-15,-150
13:25:57.876,,-235,17,1036,-630,-2590,-980,367,-13,-154
13:25:57.895,,-234,20,1036,-910,-2170,-1120,369,-15,-147
13:25:57.914,,-235,12,1038,-1260,-1540,-980,369,-19,-144
13:25:57.933,,-234,11,1041,-1050,-1120,-840,364,-15,-154
13:25:57.952,,-238,10,1034,-840,-980,-770,367,-19,-141
13:25:57.970,,-238,11,1033,-420,-980,-630,364,-18,-151
13:25:57.989,,-239,15,1029,-140,-1050,-420,367,-15,-154
13:25:58.008,,-239,15,1023,-280,-1260,-350,370,-16,-157
13:25:58.027,,-239,11,1023,-420,-1610,-560,369,-16,-153
13:25:58.046,,-239,9,1021,-280,-2030,-630,369,-12,-159
13:25:58.064,,-238,10,1030,-70,-2310,-490,369,-13,-153
13:25:58.083,,-233,11,1034,-280,-2310,-350,366,-13,-147
13:25:58.102,,-231,8,1033,-280,-1890,-140,366,-13,-147
13:25:58.121,,-230,14,1039,-210,-1400,210,370,-13,-141
13:25:58.140,,-229,14,1031,-630,-910,420,357,-21,-150
13:25:58.158,,-229,14,1030,-700,-420,630,361,-15,-144
13:25:58.177,,-231,15,1032,-770,-210,770,369,-13,-153
13:25:58.196,,-234,15,1032,-840,-350,700,367,-21,-145
13:25:58.215,,-232,16,1030,-700,-840,420,369,-13,-153
13:25:58.234,,-231,18,1025,-630,-1260,70,361,-21,-147
13:25:58.252,,-226,18,1027,-420,-1330,-140,363,-6,-148
13:25:58.271,,-225,14,1035,-420,-1050,-140,367,-12,-153
13:25:58.290,,-224,10,1039,-560,-840,-70,367,-24,-148
13:25:58.309,,-224,10,1037,-420,-770,-70,372,-7,-160
13:25:58.328,,-225,13,1032,-210,-840,-210,378,-3,-148
13:25:58.346,,-229,18,1028,-210,-840,-350,375,-18,-144
13:25:58.365,,-230,21,1030,-210,-840,-140,361,-9,-148
13:25:58.384,,-231,21,1036,-280,-700,-70,363,-12,-145
13:25:58.403,,-229,21,1032,-490,-490,-420,363,-13,-148
13:25:58.422,,-231,20,1028,-560,-280,-910,369,-16,-148
13:25:58.440,,-236,19,1025,-490,-350,-1260,363,-18,-156
13:25:58.459,,-235,16,1025,-560,-840,-1190,363,-15,-153
13:25:58.478,,-232,14,1027,-490,-1260,-1050,372,-19,-145
13:25:58.497,,-230,11,1034,-560,-1400,-980,366,-19,-156
13:25:58.516,,-228,9,1037,-560,-1260,-1050,358,-15,-159
13:25:58.534,,-230,8,1035,-490,-770,-840,373,-19,-153
13:25:58.553,,-231,9,1035,-420,-280,-420,364,-13,-156
13:25:58.572,,-233,9,1032,-420,-70,-70,364,-16,-153
13:25:58.591,,-234,16,1025,-280,0,210,363,-19,-148
13:25:58.610,,-233,18,1027,-280,0,420,363,-13,-153
13:25:58.628,,-231,16,1030,-350,0,210,367,-21,-142
13:25:58.647,,-230,12,1026,-280,-140,-280,360,-16,-153
13:25:58.666,,-229,13,1018,-210,-280,-700,361,-13,-141
13:25:58.685,,-230,14,1013,-490,-560,-700,372,-3,-144
13:25:58.703,,-229,12,1014,-980,-840,-350,364,-15,-141
13:25:58.722,,-231,14,1024,-980,-1120,0,360,-12,-148
13:25:58.741,,-231,18,1025,-1050,-1190,-210,367,-13,-145
13:25:58.760,,-230,19,1026,-1400,-1050,-700,364,-10,-150
13:25:58.779,,-230,17,1028,-1680,-840,-1120,364,-12,-154
13:25:58.797,,-231,11,1028,-1680,-770,-1260,369,-15,-153
13:25:58.816,,-230,10,1030,-1540,-980,-1120,367,-13,-156
13:25:58.835,,-229,8,1030,-1540,-1190,-980,364,-18,-141
13:25:58.854,,-232,8,1026,-1610,-1330,-980,370,-18,-153
13:25:58.873,,-231,7,1035,-1540,-1400,-840,366,-18,-160
13:25:58.891,,-228,8,1041,-1470,-1260,-700,370,-18,-147
13:25:58.910,,-226,9,1035,-1470,-770,-630,364,-7,-144
13:25:58.929,,-227,9,1032,-1610,-140,-560,373,-10,-153
13:25:58.948,,-232,7,1032,-1890,140,-350,373,-21,-136
13:25:58.967,,-234,5,1033,-1680,-140,-280,366,-19,-156
13:25:58.985,,-234,10,1031,-1120,-840,-280,360,-15,-142
13:25:59.004,,-234,14,1034,-770,-1260,-210,370,-15,-141
13:25:59.023,,-231,17,1032,-840,-1330,-280,373,-13,-156
13:25:59.042,,-228,15,1030,-910,-1120,-350,366,-12,-148
13:25:59.061,,-228,13,1033,-910,-700,-490,369,-15,-148
13:25:59.079,,-232,8,1034,-1050,-490,-700,361,-10,-153
13:25:59.098,,-233,4,1029,-980,-700,-980,364,-16,-151
13:25:59.117,,-233,3,1025,-560,-980,-1050,370,-16,-148
13:25:59.136,,-233,3,1025,-630,-1260,-840,370,-16,-148
13:25:59.155,,-229,5,1027,-630,-1260,-840,367,-9,-139
13:25:59.173,,-228,2,1032,-980,-1120,-420,367,-18,-156
13:25:59.192,,-227,2,1034,-1050,-980,-350,369,-12,-154
13:25:59.211,,-230,7,1032,-770,-770,-490,366,-12,-148
13:25:59.230,,-231,11,1030,-700,-770,-560,360,-15,-148
13:25:59.249,,-233,11,1029,-840,-840,-560,367,-21,-144
13:25:59.267,,-231,10,1033,-700,-1120,-560,364,-16,-147
13:25:59.286,,-227,9,1033,-560,-1330,-770,360,-22,-159
13:25:59.305,,-224,9,1032,-420,-1260,-980,372,-12,-150
13:25:59.324,,-222,5,1038,-490,-980,-980,360,-12,-147
13:25:59.342,,-223,3,1038,-630,-560,-910,379,-13,-145
13:25:59.361,,-226,5,1030,-700,-420,-700,367,-13,-145
13:25:59.380,,-229,8,1025,-700,-560,-630,370,-13,-145
13:25:59.399,,-230,8,1025,-770,-630,-420,369,-10,-144
13:25:59.418,,-228,10,1024,-980,-770,-490,366,-16,-144
13:25:59.436,,-229,8,1020,-1190,-700,-700,366,-9,-147
13:25:59.455,,-230,5,1023,-1470,-840,-910,376,-21,-145
13:25:59.474,,-230,3,1026,-1400,-1260,-1050,370,-9,-151
13:25:59.493,,-229,2,1029,-1260,-1750,-1190,367,-15,-148
13:25:59.512,,-227,5,1034,-1190,-1960,-1120,372,-16,-147
13:25:59.530,,-224,1,1040,-1260,-1750,-910,369,-12,-142
13:25:59.549,,-222,2,1045,-1190,-1260,-770,369,-15,-142
13:25:59.568,,-221,2,1043,-1330,-630,-700,372,-16,-136
13:25:59.587,,-222,0,1038,-1260,-70,-560,367,-16,-144
13:25:59.606,,-222,2,1035,-1050,140,-490,363,-12,-148
13:25:59.624,,-224,1,1038,-770,140,-350,373,-10,-150
13:25:59.643,,-227,4,1040,-490,-140,-350,360,-16,-153
13:25:59.662,,-226,5,1040,-210,-280,-490,369,-15,-141
13:25:59.681,,-222,9,1037,0,-210,-770,367,-19,-148
13:25:59.700,,-221,7,1033,-70,280,-910,372,-16,-141
13:25:59.718,,-225,6,1032,-210,700,-840,366,-15,-138
13:25:59.737,<gest9_down,,,,,,,,,
13:25:59.737,,-231,4,1028,-350,770,-840,364,-19,-136
13:25:59.756,,-231,6,1026,-210,560,-770,367,-16,-150
13:25:59.775,,-232,2,1025,-210,210,-980,366,-19,-139
13:25:59.794,,-234,0,1023,-70,0,-1260,361,-19,-139
13:25:59.812,,-237,0,1023,-140,-280,-1400,366,-16,-145
13:25:59.831,,-237,-3,1027,-280,-630,-1120,364,-22,-148
13:25:59.850,,-235,-4,1030,-490,-700,-770,370,-22,-145
13:25:59.869,,-231,-1,1032,-700,-560,-420,360,-16,-147
13:25:59.888,,-228,2,1035,-910,-140,-420,367,-13,-153
13:25:59.906,,-229,6,1033,-980,350,-490,367,-13,-142
13:25:59.925,,-230,5,1032,-980,560,-560,360,-15,-154
13:25:59.944,,-229,4,1033,-980,350,-560,364,-16,-145
13:25:59.963,,-229,5,1031,-770,70,-700,364,-15,-148
13:25:59.982,,-231,7,1030,-350,-210,-910,369,-15,-141
13:26:00.000,,-238,8,1030,-70,-490,-910,366,-19,-147
13:26:00.019,,-238,4,1034,0,-1050,-980,367,-13,-147
13:26:00.038,,-235,4,1034,210,-1190,-1190,369,-6,-145
13:26:00.057,,-231,3,1028,140,-700,-1190,364,-12,-142
13:26:00.076,,-234,-1,1028,-560,210,-1050,361,-12,-150
13:26:00.094,,-233,-15,1026,-1120,560,-840,375,-15,-144
13:26:00.113,,-231,-15,1024,-630,420,-700,373,-16,-147
13:26:00.132,,-226,-13,1022,-630,-70,-490,370,-16,-151
13:26:00.151,,-222,-12,1022,-1190,-280,-70,370,-16,-151
13:26:00.170,,-217,-3,1027,-1470,-70,350,373,-10,-147
13:26:00.188,,-216,5,1028,-1820,350,560,369,-6,-151
13:26:00.207,,-220,13,1025,-2030,770,280,366,-16,-153
13:26:00.226,,-225,19,1027,-1960,910,-70,367,-13,-156
13:26:00.245,,-230,22,1026,-1820,560,-700,366,-13,-142
13:26:00.263,,-236,22,1028,-1470,0,-1330,369,-16,-139
13:26:00.282,,-238,19,1032,-980,-840,-2030,375,-12,-145
13:26:00.301,,-240,13,1030,-560,-1470,-2590,366,-15,-147
13:26:00.320,,-239,7,1033,-210,-1610,-2940,369,-16,-154
13:26:00.339,,-237,0,1039,-420,-1470,-2730,369,-18,-145
13:26:00.357,,-239,-7,1039,-490,-1190,-2380,363,-12,-138
13:26:00.376,,-242,-8,1037,-210,-1050,-1960,367,-16,-142
13:26:00.395,,-243,-5,1037,-70,-910,-1470,361,-18,-151
13:26:00.414,,-245,-4,1038,-280,-770,-1190,364,-19,-148
13:26:00.433,,-242,-1,1035,-140,-490,-1190,366,-13,-153
13:26:00.451,,-243,0,1031,-140,0,-1260,366,-18,-147
13:26:00.470,,-242,-1,1027,-560,420,-1260,364,-13,-150
13:26:00.489,,-241,-7,1026,-700,630,-1050,369,-12,-139
13:26:00.508,,-239,-8,1029,-490,490,-840,367,-10,-147
13:26:00.527,,-238,-5,1024,-420,210,-910,370,-7,-145
13:26:00.545,,-237,-1,1016,-350,-70,-980,369,-16,-141
13:26:00.564,,-237,-4,1017,-700,-210,-840,372,-12,-142
