Sensors' Acquisition [Hz]: Acc@52.0 Gyro@52.0 Mag@52.0 
hh:mm:ss.ms, Annotation , AccX [mg], AccY, AccZ, GyroX [mdps], GyroY, GyroZ, MagX [mgauss], MagY, MagZ
21:08:17.436,,-240,-179,937,-148610,54740,12880,312,-57,-394
21:08:17.455,,-285,-173,832,-145880,51590,8330,340,-51,-372
21:08:17.474,,-307,-123,797,-145040,43610,4200,351,-51,-375
21:08:17.492,,-288,-177,789,-147210,33460,-1750,370,-40,-354
21:08:17.511,,-292,-248,759,-137550,25620,-8190,382,-40,-354
21:08:17.530,,-308,-271,760,-113400,18480,-15120,400,-40,-343
21:08:17.549,,-325,-255,796,-81200,11200,-21840,402,-36,-346
21:08:17.568,,-336,-251,835,-59430,4130,-28350,406,-37,-330
21:08:17.586,,-357,-280,864,-55790,-700,-35560,411,-36,-327
21:08:17.605,,-380,-354,902,-57540,-3920,-41930,414,-48,-330
21:08:17.624,,-378,-475,919,-53900,-6650,-46480,414,-55,-319
21:08:17.643,,-376,-589,949,-43260,-7280,-47880,420,-60,-316
21:08:17.661,,-365,-663,1011,-27440,-5950,-44660,424,-66,-307
21:08:17.680,,-370,-711,1060,-11480,-2030,-38010,418,-69,-307
21:08:17.699,,-364,-716,1060,770,2170,-30170,420,-72,-309
21:08:17.718,,-375,-711,1039,7980,6930,-21700,411,-69,-316
21:08:17.737,,-391,-657,990,14210,10150,-14490,418,-72,-324
21:08:17.755,,-412,-601,925,20510,11410,-9100,408,-76,-318
21:08:17.774,,-428,-559,892,25550,11270,-5250,405,-67,-318
21:08:17.793,,-435,-531,874,30870,10150,-3150,405,-69,-319
21:08:17.812,,-427,-488,829,35490,7700,-2240,402,-63,-330
21:08:17.830,,-427,-488,829,35490,7700,-2240,387,-69,-333
21:08:17.849,,-414,-481,780,34230,4550,-1820,387,-69,-333
21:08:17.868,,-389,-483,748,29120,1120,-1820,390,-67,-334
21:08:17.887,,-375,-491,741,24500,-1540,-1960,393,-67,-334
21:08:17.906,,-360,-501,745,21910,-3710,-2170,394,-70,-331
21:08:17.924,,-349,-497,743,19950,-5250,-3150,391,-69,-348
21:08:17.943,,-330,-502,736,16310,-7070,-4270,375,-78,-346
21:08:17.962,,-310,-503,752,14420,-8680,-4690,378,-75,-348
21:08:17.981,,-298,-524,794,14560,-9520,-4620,376,-73,-348
21:08:17.999,,-292,-524,832,17570,-9380,-3920,375,-78,-340
21:08:18.018,,-293,-507,859,22050,-9240,-2590,372,-73,-343
21:08:18.037,,-296,-489,886,26390,-9380,-980,373,-76,-343
21:08:18.056,,-295,-471,914,30940,-9450,280,370,-76,-349
21:08:18.074,,-297,-440,946,35980,-8960,980,363,-73,-351
21:08:18.093,,-298,-410,973,38570,-8470,1050,355,-76,-355
21:08:18.112,,-295,-381,992,38220,-8050,490,358,-72,-354
21:08:18.131,,-292,-358,1001,34580,-7490,-490,349,-84,-360
21:08:18.150,,-286,-356,993,28070,-7140,-1540,346,-84,-358
21:08:18.168,,-285,-359,992,23800,-6650,-2100,343,-87,-367
21:08:18.187,,-278,-353,1005,21980,-6790,-2170,337,-82,-357
21:08:18.206,,-276,-351,1016,18830,-5950,-1540,334,-81,-369
21:08:18.225,,-278,-346,1001,14770,-4760,-1120,336,-84,-361
21:08:18.243,,-277,-340,984,9870,-4060,-980,336,-90,-357
21:08:18.262,,-277,-347,970,5110,-3990,-700,334,-87,-367
21:08:18.281,,-279,-357,964,2310,-4130,-420,334,-82,-367
21:08:18.300,,-281,-357,962,2660,-4340,-350,334,-81,-357
21:08:18.319,,-283,-350,958,4830,-4410,-420,330,-88,-354
21:08:18.337,,-285,-343,954,5670,-4760,-280,334,-90,-369
21:08:18.356,,-283,-344,956,4830,-4760,140,330,-88,-364
21:08:18.375,,-277,-351,956,3990,-4690,420,327,-93,-366
21:08:18.394,,-268,-352,951,3360,-4200,560,330,-93,-366
21:08:18.412,,-267,-347,951,2310,-3570,770,339,-88,-364
21:08:18.431,,-268,-351,957,1540,-3220,910,330,-87,-366
21:08:18.450,,-268,-343,965,1680,-3080,1050,328,-93,-366
21:08:18.469,,-267,-339,969,1820,-3080,1260,330,-84,-366
21:08:18.488,,-268,-336,971,2100,-3290,1330,330,-91,-369
21:08:18.506,,-270,-329,978,3360,-3920,1190,328,-82,-366
21:08:18.525,,-276,-329,997,5250,-4620,980,331,-91,-364
21:08:18.544,,-286,-337,1008,9940,-5320,1050,321,-90,-364
21:08:18.563,,-295,-341,1026,18830,-6440,1120,322,-87,-366
21:08:18.581,,-297,-333,1049,28910,-7840,1470,315,-82,-369
21:08:18.600,,-302,-338,1056,38010,-8890,2100,313,-90,-373
21:08:18.619,,-310,-316,1053,46340,-10010,2450,312,-97,-372
21:08:18.638,,-293,-275,1034,51450,-12670,3080,306,-93,-375
21:08:18.657,,-259,-271,982,55300,-14910,3850,286,-94,-379
21:08:18.675,,-228,-232,965,59360,-15750,5180,289,-94,-379
21:08:18.694,,-203,-206,973,54460,-15190,6370,279,-103,-384
21:08:18.713,,-199,-212,975,42630,-11620,5740,273,-96,-385
21:08:18.732,,-192,-214,960,34300,-7700,3430,270,-100,-387
21:08:18.750,,-189,-198,930,30240,-5460,1750,268,-100,-382
21:08:18.769,,-190,-197,906,26670,-6020,210,270,-102,-373
21:08:18.788,,-184,-193,885,23590,-9520,-1050,270,-102,-373
21:08:18.807,,-170,-185,872,23030,-14280,-1330,261,-109,-385
21:08:18.825,,-142,-207,833,27090,-20440,1190,265,-112,-385
21:08:18.844,,-5,-250,751,19950,-31010,3220,258,-109,-388
21:08:18.863,,-12,-217,815,7910,-31640,7350,250,-114,-387
21:08:18.882,,-25,-236,853,-5810,-33600,11830,258,-112,-390
21:08:18.901,,-46,-253,853,-16240,-37380,14210,259,-124,-378
21:08:18.919,,-47,-241,857,-19250,-40950,14630,259,-124,-375
21:08:18.938,,-59,-172,908,-12040,-41370,13090,273,-130,-366
21:08:18.957,,-70,-119,979,-2240,-40320,10990,268,-136,-361
21:08:18.976,,-69,-77,1033,1540,-38220,6230,274,-138,-358
21:08:18.994,,-78,-32,1085,-1680,-34300,-280,271,-142,-363
21:08:19.013,,-103,-12,1128,-9520,-30030,-5390,268,-142,-355
21:08:19.032,,-124,-31,1171,-17850,-26880,-8750,277,-147,-354
21:08:19.051,,-130,-42,1233,-20580,-23940,-11200,270,-151,-343
21:08:19.070,,-115,-47,1295,-16870,-20370,-13720,279,-154,-346
21:08:19.088,,-96,-31,1331,-10290,-15610,-16310,273,-159,-337
21:08:19.107,,-81,-30,1330,-5320,-9380,-19530,277,-159,-358
21:08:19.126,,-60,-39,1308,-3360,-3430,-23030,274,-162,-355
21:08:19.145,,-50,-57,1259,-5040,2380,-24850,274,-166,-354
21:08:19.163,,-43,-106,1201,-7980,7210,-25340,271,-160,-348
21:08:19.182,,-34,-148,1154,-6930,10640,-24990,267,-163,-354
21:08:19.201,,-23,-145,1116,-2870,12810,-24220,264,-160,-357
21:08:19.220,,-18,-133,1074,140,13370,-23520,267,-163,-351
21:08:19.238,,-9,-132,1054,1260,12810,-24010,262,-160,-349
21:08:19.257,,16,-139,1039,1890,11550,-25900,262,-165,-351
21:08:19.276,,33,-133,1022,910,10990,-27160,258,-160,-348
21:08:19.295,,50,-158,1006,-6300,11760,-28420,261,-168,-361
21:08:19.314,,45,-134,996,-16100,14420,-29750,252,-157,-358
21:08:19.332,,21,-125,988,-30030,17570,-31360,249,-168,-358
21:08:19.351,,9,-75,975,-50820,20090,-33390,256,-156,-363
21:08:19.370,,1,-134,939,-80500,24710,-36750,258,-156,-363
21:08:19.389,,-20,-187,910,-104370,31500,-41860,265,-160,-355
21:08:19.407,,-63,-200,864,-122990,38290,-48650,279,-150,-349
21:08:19.426,,-149,-207,867,-138600,44100,-55370,294,-148,-348
21:08:19.445,,-264,-183,919,-152250,47740,-59850,303,-148,-342
21:08:19.464,,-372,-182,994,-164850,51030,-63560,319,-148,-339
21:08:19.483,,-432,-264,1000,-175910,57190,-68040,333,-150,-327
21:08:19.501,,-475,-316,946,-178360,65800,-72520,343,-150,-318
21:08:19.520,,-504,-391,953,-174790,76300,-74550,369,-141,-312
21:08:19.539,,-494,-542,935,-181860,88830,-76510,376,-136,-313
21:08:19.558,,-509,-715,784,-201040,97230,-77140,390,-132,-297
21:08:19.576,,-553,-851,677,-222250,99890,-71820,409,-124,-291
21:08:19.595,,-536,-995,603,-238420,97090,-61670,420,-124,-271
21:08:19.614,,-536,-995,603,-238420,97090,-61670,438,-126,-259
21:08:19.633,,-486,-1136,498,-235760,93730,-48650,459,-115,-252
21:08:19.651,,-411,-1096,384,-214830,93940,-31010,466,-105,-232
21:08:19.670,,-348,-1091,224,-196350,98770,-11130,483,-88,-222
21:08:19.689,,-297,-1019,-60,-188860,109480,9240,490,-73,-210
21:08:19.708,,-322,-993,-488,-190890,128590,26110,516,-69,-189
21:08:19.727,,-441,-897,-1010,-171150,154280,29890,525,-46,-171
21:08:19.745,,-674,-633,-1841,-173110,146510,24780,525,-46,-171
21:08:19.764,,-348,-806,-1997,-184590,29190,140,528,-57,-147
21:08:19.783,,67,-598,-1992,-115920,-147910,-55370,532,-75,-130
21:08:19.802,,385,-1004,-1760,-69090,-301140,-115150,532,-94,-100
21:08:19.820,,1561,783,932,-174440,-340970,-162820,504,-129,-36
21:08:19.839,,579,-1914,-1145,-434000,131810,-94920,517,-138,-22
21:08:19.858,,332,-1998,38,17920,61250,-7490,510,-124,-40
21:08:19.877,,913,-1389,224,228760,-61320,700,505,-123,-69
21:08:19.896,,293,-1171,472,116760,-17150,38780,514,-126,-72
21:08:19.914,,169,-1041,361,29260,18480,59290,510,-114,-85
21:08:19.933,,101,-966,220,25480,56560,54180,523,-106,-84
21:08:19.952,,-55,-936,-46,-9940,85680,49350,526,-103,-88
21:08:19.971,,-229,-709,-109,-39970,105560,46830,535,-88,-84
21:08:19.989,,-201,-780,-284,-45920,111090,36890,541,-82,-81
21:08:20.008,,-223,-903,-581,-24850,101850,29120,538,-81,-93
21:08:20.027,,-267,-770,-637,2170,79380,23870,537,-70,-99
21:08:20.046,,-296,-699,-571,10080,54530,11690,543,-87,-94
21:08:20.065,,-313,-732,-539,3710,36190,-2660,544,-72,-100
21:08:20.083,,-320,-721,-494,-15750,25970,-13230,538,-79,-100
21:08:20.102,,-343,-731,-523,-48370,21140,-19740,532,-79,-91
21:08:20.121,,-354,-738,-553,-86100,18760,-22610,535,-88,-78
21:08:20.140,,-349,-776,-530,-122290,18340,-21350,538,-85,-67
21:08:20.158,,-349,-803,-534,-150570,19110,-15820,537,-88,-46
21:08:20.177,,-385,-869,-583,-163730,19880,-9660,534,-82,-22
21:08:20.196,,-421,-915,-672,-158620,16800,-6300,537,-81,-12
21:08:20.215,,-455,-983,-662,-129500,9660,-4200,538,-78,4
21:08:20.234,,-428,-935,-506,-87290,3010,-1540,547,-85,18
21:08:20.252,,-402,-876,-396,-67270,1540,2450,534,-75,13
21:08:20.271,,-362,-838,-407,-81340,3430,7070,529,-78,37
21:08:20.290,,-313,-871,-521,-119910,4130,10920,534,-81,63
21:08:20.309,,-287,-928,-610,-144060,1400,12950,529,-78,75
21:08:20.327,,-247,-893,-583,-136850,-4620,12670,529,-78,91
21:08:20.346,,-205,-917,-559,-112910,-11620,10990,526,-64,109
21:08:20.365,,-176,-924,-605,-96180,-14770,10710,525,-63,118
21:08:20.384,,-183,-968,-727,-87080,-16310,11480,507,-60,126
21:08:20.402,,-190,-913,-740,-71330,-18200,12110,514,-57,133
21:08:20.421,,-176,-831,-633,-50330,-19950,13650,511,-57,142
21:08:20.440,,-154,-764,-550,-36890,-18900,15540,502,-54,150
21:08:20.459,,-169,-750,-580,-33950,-15960,15680,507,-43,147
21:08:20.478,,-216,-720,-656,-32830,-14560,13510,511,-37,168
21:08:20.496,,-257,-663,-668,-27440,-15820,9800,502,-37,169
21:08:20.515,,-277,-642,-619,-22750,-17500,6020,502,-36,174
21:08:20.534,,-292,-635,-608,-21000,-17990,3290,505,-42,169
21:08:20.553,,-316,-631,-642,-20370,-17500,1820,499,-37,178
21:08:20.571,,-332,-619,-653,-16940,-17360,770,496,-37,174
21:08:20.590,,-337,-618,-637,-13720,-17570,-70,498,-36,168
21:08:20.609,,-343,-621,-660,-10500,-17010,0,489,-33,175
21:08:20.628,,-347,-580,-680,-9380,-16310,0,502,-36,172
21:08:20.647,,-345,-590,-673,-14420,-16240,0,492,-25,175
21:08:20.665,,-352,-613,-679,-17850,-16310,-70,492,-25,175
21:08:20.684,,-348,-600,-680,-16590,-17080,-210,499,-27,190
21:08:20.703,,-346,-596,-667,-15330,-17570,-280,499,-30,189
21:08:20.722,,-342,-610,-661,-14490,-18410,-630,493,-27,199
21:08:20.740,,-343,-592,-640,-12740,-18060,-1260,496,-25,193
21:08:20.759,,-344,-597,-628,-11900,-17080,-2030,492,-22,201
21:08:20.778,,-344,-604,-618,-11480,-15610,-3360,484,-24,201
21:08:20.797,,-344,-614,-617,-9240,-14210,-5040,492,-22,196
21:08:20.816,,-341,-629,-611,-4130,-13090,-6580,492,-19,193
21:08:20.834,,-336,-636,-601,1820,-11760,-7630,493,-12,195
21:08:20.853,,-331,-626,-600,6300,-10080,-8330,492,-21,204
21:08:20.872,,-327,-616,-606,6580,-7840,-8820,484,-27,207
21:08:20.891,,-326,-619,-622,4130,-5250,-9100,487,-19,198
21:08:20.909,,-325,-638,-642,3080,-3150,-9240,480,-24,198
21:08:20.928,,-329,-625,-661,4060,-1540,-9380,478,-21,190
21:08:20.947,,-328,-616,-684,1540,-280,-9380,493,-30,195
21:08:20.966,,-327,-634,-695,-2730,70,-8820,490,-19,198
21:08:20.985,,-324,-639,-704,-2800,-560,-7910,490,-30,199
21:08:21.003,,-326,-638,-706,-1820,-1890,-7140,486,-36,199
21:08:21.022,,-328,-634,-703,-1400,-3360,-6510,492,-31,205
21:08:21.041,,-331,-636,-695,-560,-4830,-5950,483,-33,196
21:08:21.060,,-329,-627,-685,630,-5880,-5460,486,-24,193
21:08:21.078,,-328,-640,-677,1190,-6370,-5040,487,-24,202
21:08:21.097,,-322,-638,-654,3990,-6860,-4830,489,-25,199
21:08:21.116,,-314,-647,-642,7420,-6790,-4620,489,-33,204
21:08:21.135,,-304,-651,-628,11060,-5600,-4480,489,-21,184
21:08:21.154,,-294,-646,-620,14560,-3710,-4340,478,-28,199
21:08:21.172,,-285,-671,-607,18270,-1890,-4200,490,-31,186
21:08:21.191,,-285,-720,-612,29190,-630,-4970,502,-27,189
21:08:21.210,,-285,-801,-633,54180,-1610,-6860,498,-30,183
21:08:21.229,,-289,-763,-622,92260,-4270,-9450,508,-34,175
21:08:21.247,,-279,-570,-541,124530,-2730,-11270,513,-36,163
21:08:21.266,,-246,-640,-497,137270,2100,-13370,516,-43,133
21:08:21.285,,-233,-798,-437,145670,7700,-13790,526,-48,117
21:08:21.304,,-220,-821,-400,155120,15120,-13720,525,-48,94
21:08:21.323,,-215,-802,-370,163100,21350,-16730,532,-55,60
21:08:21.341,,-191,-737,-346,165690,24640,-23450,544,-57,45
21:08:21.360,,-186,-722,-323,158410,25900,-32060,543,-61,28
21:08:21.379,,-171,-730,-273,142240,24990,-39970,547,-67,12
21:08:21.398,,-171,-730,-273,142240,24990,-39970,540,-75,-7
21:08:21.416,,-173,-809,-250,114170,23800,-45990,538,-84,-27
21:08:21.435,,-198,-902,-272,90160,21770,-50470,532,-93,-34
21:08:21.454,,-213,-948,-287,84630,17220,-55090,531,-97,-51
21:08:21.473,,-211,-947,-270,92960,10430,-59500,517,-109,-58
21:08:21.491,,-196,-937,-252,106050,3360,-61180,514,-120,-84
21:08:21.510,,-173,-965,-214,111930,-2240,-57890,511,-129,-84
21:08:21.529,,-154,-984,-169,98630,-6090,-50050,502,-139,-106
21:08:21.548,,-163,-1055,-133,74200,-7140,-43820,498,-127,-108
21:08:21.567,,-151,-1067,-105,58590,-6370,-40460,498,-148,-111
21:08:21.585,,-135,-1058,-72,51800,-5460,-37170,498,-148,-111
21:08:21.604,,-126,-1061,-41,50750,-4130,-33670,498,-154,-115
21:08:21.623,,-114,-1054,0,56210,-1750,-30660,487,-159,-130
21:08:21.642,,-94,-1046,55,65660,1050,-28350,481,-166,-133
21:08:21.660,,-77,-1005,108,73710,4760,-26600,477,-165,-145
21:08:21.679,,-53,-962,139,71470,8470,-25900,472,-169,-154
21:08:21.698,,-38,-978,142,52780,10710,-25550,463,-162,-157
21:08:21.717,,-25,-1013,100,28980,10290,-24500,463,-165,-154
21:08:21.736,,-2,-1097,58,13860,7350,-22750,460,-163,-150
21:08:21.754,,7,-1090,90,16030,6020,-20020,462,-175,-162
21:08:21.773,,13,-1051,124,23590,4340,-16520,460,-175,-174
21:08:21.792,,23,-1007,135,23730,3290,-14070,456,-180,-162
21:08:21.811,,33,-988,128,13860,3360,-13090,456,-168,-171
21:08:21.829,,41,-964,127,2520,4480,-13440,454,-174,-165
21:08:21.848,,46,-975,119,-4340,5530,-14490,442,-178,-171
21:08:21.867,,54,-984,106,-2940,5180,-15400,450,-178,-174
21:08:21.886,,62,-992,86,3500,3850,-15400,445,-186,-175
21:08:21.905,,69,-995,84,12670,2030,-15120,441,-178,-177
21:08:21.923,,76,-989,92,19600,-210,-14770,450,-168,-183
21:08:21.942,,86,-1000,106,25270,-1680,-13790,436,-190,-184
21:08:21.961,,87,-1021,129,31920,-2380,-12110,441,-184,-177
21:08:21.980,,92,-1034,156,36960,-3290,-10290,432,-187,-184
21:08:21.998,,92,-1036,177,35280,-4270,-9030,426,-189,-184
21:08:22.017,,91,-1040,194,28490,-4340,-7840,429,-192,-192
21:08:22.036,,87,-1042,198,21840,-4060,-6090,423,-187,-190
21:08:22.055,,88,-1038,208,17010,-3710,-4620,418,-195,-190
21:08:22.074,,86,-1029,212,11270,-3010,-3290,426,-189,-193
21:08:22.092,,83,-1040,220,5740,-2520,-2240,424,-193,-204
21:08:22.111,,86,-1042,236,2870,-2450,-1960,426,-196,-198
21:08:22.130,,91,-1025,236,-140,-2310,-1680,415,-193,-198
21:08:22.149,,96,-1015,238,-3290,-1050,-980,429,-195,-193
21:08:22.167,,98,-1016,244,-6160,140,140,417,-189,-204
21:08:22.186,,98,-1009,242,-7700,770,910,427,-187,-205
21:08:22.205,,99,-1000,233,-8120,350,1050,429,-196,-201
21:08:22.224,,97,-1001,224,-7630,-630,700,421,-192,-189
21:08:22.243,,94,-994,222,-5460,-1540,350,421,-190,-201
21:08:22.261,,91,-994,215,-4130,-2450,-210,435,-190,-190
21:08:22.280,,87,-988,201,-3990,-2870,-490,427,-190,-196
21:08:22.299,,82,-984,199,-2520,-2800,-280,426,-193,-189
21:08:22.318,,76,-983,195,-910,-2310,-280,427,-192,-201
21:08:22.336,,71,-988,194,-70,-1890,-490,420,-195,-199
21:08:22.355,,69,-996,195,-140,-1610,-560,424,-192,-186
21:08:22.374,,69,-994,194,-280,-1260,-560,424,-190,-190
21:08:22.393,,69,-984,187,-350,-770,-420,426,-196,-186
21:08:22.411,,68,-982,190,-280,-280,-280,427,-190,-187
21:08:22.430,,70,-987,198,560,-140,-420,424,-193,-193
21:08:22.449,,71,-985,201,1190,0,-560,423,-193,-184
21:08:22.468,,75,-987,204,1260,140,-560,423,-192,-199
21:08:22.487,,75,-988,201,70,350,-280,429,-186,-199
21:08:22.505,,73,-988,194,-980,350,210,432,-198,-201
21:08:22.524,,73,-980,192,-630,70,350,432,-198,-201
21:08:22.543,,74,-975,192,210,-490,140,426,-198,-201
21:08:22.562,,77,-971,193,840,-700,-210,429,-190,-195
21:08:22.580,,78,-983,197,1680,-700,-700,427,-202,-201
21:08:22.599,,76,-979,196,2590,-980,-980,421,-196,-204
21:08:22.618,,77,-987,202,3220,-1190,-1050,423,-187,-190
21:08:22.637,,78,-978,205,4130,-910,-1050,430,-184,-195
21:08:22.656,,81,-977,207,5180,0,-770,427,-190,-198
21:08:22.674,,81,-982,210,6300,420,-980,421,-193,-193
21:08:22.693,,78,-979,206,6790,700,-1120,426,-192,-201
21:08:22.712,,81,-982,220,9100,910,-980,430,-187,-208
21:08:22.731,,75,-973,229,10430,1470,-1120,424,-189,-207
21:08:22.749,,71,-974,240,11130,1540,-1400,436,-186,-211
21:08:22.768,,68,-964,250,14420,1260,-1750,418,-193,-198
21:08:22.787,,67,-949,253,18130,1540,-2310,421,-196,-196
21:08:22.806,,67,-936,254,18970,2170,-3430,415,-190,-204
21:08:22.825,,66,-927,258,16590,2660,-5250,421,-198,-213
21:08:22.843,,66,-918,274,12180,3500,-7280,417,-195,-214
21:08:22.862,,61,-919,295,3010,5740,-9590,412,-198,-214
21:08:22.881,,55,-917,293,-8750,8890,-12740,418,-190,-210
21:08:22.900,,57,-925,260,-16520,11620,-15890,408,-195,-219
21:08:22.918,,70,-962,219,-18970,13160,-17710,417,-192,-211
21:08:22.937,,90,-996,176,-17150,13300,-17920,414,-192,-210
21:08:22.956,,113,-1031,154,-9940,12390,-15890,412,-198,-208
21:08:22.975,,130,-1042,164,-3710,11060,-12950,409,-199,-211
21:08:22.994,,146,-1050,182,-1890,10150,-10220,405,-195,-214
21:08:23.012,,161,-1040,191,-1120,9730,-7350,406,-199,-217
21:08:23.031,,168,-1027,212,-910,9450,-4340,399,-189,-223
21:08:23.050,,169,-1016,218,-2240,8890,-1610,412,-192,-214
21:08:23.069,,153,-1008,235,-2870,8260,630,406,-195,-226
21:08:23.087,,138,-992,237,-1540,7280,2240,400,-198,-228
21:08:23.106,,121,-1000,233,-1400,6230,3290,408,-198,-217
21:08:23.125,,112,-1003,235,-1400,4620,3920,412,-195,-219
21:08:23.144,,115,-1017,238,840,2450,4130,412,-186,-217
21:08:23.162,,127,-1022,242,5250,-210,3850,408,-192,-232
21:08:23.181,,127,-1022,242,10780,-3220,3780,414,-193,-228
21:08:23.200,,130,-1040,241,10780,-3220,3780,411,-195,-223
21:08:23.219,,135,-1042,235,21210,-7840,3920,399,-187,-223
21:08:23.238,,135,-1044,246,29820,-13020,3570,412,-193,-232
21:08:23.256,,137,-1069,257,32130,-17780,2800,394,-198,-228
21:08:23.275,,133,-1108,269,29120,-22050,2800,405,-198,-220
21:08:23.294,,125,-1130,260,24990,-26530,4550,405,-199,-220
21:08:23.313,,113,-1158,254,26110,-30240,8190,403,-202,-220
21:08:23.331,,103,-1153,255,27790,-33810,11970,399,-201,-226
21:08:23.350,,90,-1161,261,23870,-37310,15470,408,-204,-220
21:08:23.369,,58,-1128,296,19040,-39970,19600,400,-201,-222
21:08:23.388,,13,-1134,320,12250,-43960,23800,405,-202,-216
21:08:23.407,,-34,-1138,334,11060,-49000,28630,409,-199,-208
21:08:23.425,,-83,-1151,335,20650,-52570,34790,411,-196,-202
21:08:23.444,,-117,-1179,369,42350,-54880,42350,406,-198,-210
21:08:23.463,,-141,-1216,376,64540,-54250,51310,414,-192,-216
21:08:23.482,,-141,-1218,387,80710,-51730,61460,414,-192,-216
21:08:23.500,,-144,-1189,412,89530,-48090,71190,409,-189,-214
21:08:23.519,,-136,-1202,472,98840,-44380,80360,409,-187,-222
21:08:23.538,,-120,-1156,527,112210,-40740,88130,423,-178,-223
21:08:23.557,,-127,-1123,528,126980,-35840,93310,426,-180,-235
21:08:23.576,,-149,-1017,474,144550,-30870,96530,409,-166,-243
21:08:23.594,,-164,-956,423,155820,-27720,98700,408,-163,-247
21:08:23.613,,-147,-940,455,170940,-26810,102550,402,-156,-268
21:08:23.632,,-136,-873,516,178500,-25060,105210,405,-145,-283
21:08:23.651,,-148,-807,597,178290,-21420,105490,385,-136,-300
21:08:23.669,,-154,-667,623,168630,-18060,103390,388,-135,-313
21:08:23.688,,-169,-537,567,148610,-16100,101360,372,-127,-321
21:08:23.707,,-169,-548,532,131180,-16590,103110,366,-118,-330
21:08:23.726,,-169,-609,576,122430,-17640,103040,361,-109,-330
21:08:23.745,,-144,-491,667,116410,-16030,96950,358,-108,-343
21:08:23.763,,-146,-370,737,104440,-11410,87360,352,-96,-343
21:08:23.782,,-152,-313,765,87080,-6930,78400,343,-91,-352
21:08:23.801,,-156,-302,769,67060,-3990,70070,345,-93,-352
21:08:23.820,,-149,-346,755,50050,-3570,63140,340,-82,-358
21:08:23.838,,-152,-397,757,42070,-3570,57400,336,-79,-364
21:08:23.857,,-146,-421,760,43680,-4900,52500,339,-78,-367
21:08:23.876,,-135,-419,770,49140,-7140,47810,333,-82,-369
21:08:23.895,,-126,-363,803,55930,-9030,43260,337,-81,-366
21:08:23.914,,-122,-295,844,53690,-10290,38500,328,-76,-376
21:08:23.932,,-122,-265,887,43260,-10430,34300,328,-78,-370
21:08:23.951,,-123,-239,909,28840,-10150,31220,321,-70,-376
21:08:23.970,,-127,-218,905,13790,-9800,29260,324,-72,-373
21:08:23.989,,-146,-200,893,630,-9800,26950,327,-72,-373
21:08:24.007,,-158,-198,891,-8330,-10360,23660,322,-73,-372
21:08:24.026,,-165,-191,898,-14770,-11060,19460,330,-69,-375
21:08:24.045,,-178,-211,915,-17990,-11830,15820,330,-69,-376
21:08:24.064,,-194,-203,919,-19320,-13370,12250,337,-82,-364
21:08:24.082,,-200,-211,920,-22050,-16310,8960,342,-75,-360
21:08:24.101,,-214,-214,951,-23240,-19180,5600,348,-78,-361
21:08:24.120,,-213,-254,991,-20370,-23240,3430,352,-78,-355
21:08:24.139,,-200,-283,1038,-11970,-27160,2730,351,-81,-363
21:08:24.158,,-205,-279,1085,-1120,-28980,3430,349,-81,-360
21:08:24.176,,-205,-276,1121,10920,-30240,4270,345,-87,-358
21:08:24.195,,-197,-261,1133,21770,-31500,4900,343,-94,-358
21:08:24.214,,-209,-256,1134,31500,-31710,5250,339,-94,-351
21:08:24.233,,-211,-235,1133,44030,-33880,5670,334,-99,-357
21:08:24.251,,-222,-209,1123,56770,-33950,5670,333,-99,-357
21:08:24.270,,-231,-193,1093,71890,-35280,6230,324,-106,-369
21:08:24.289,,-239,-127,1066,85470,-38220,6440,316,-106,-366
21:08:24.308,,-246,-99,1040,83230,-40950,6440,306,-120,-364
21:08:24.327,,-224,-135,1008,72800,-44730,4130,291,-124,-370
21:08:24.345,,-214,-156,992,64610,-46270,1470,283,-127,-373
21:08:24.364,,-193,-203,977,57050,-47600,560,280,-129,-369
21:08:24.383,,-162,-190,954,48580,-47390,-70,277,-141,-363
21:08:24.402,,-118,-169,906,32620,-44520,420,273,-144,-363
21:08:24.420,,-75,-129,899,6020,-37730,2240,273,-144,-363
21:08:24.439,,-50,-149,963,-39200,-25900,4620,283,-142,-372
21:08:24.458,,-44,-244,986,-95270,-10990,6720,283,-150,-355
21:08:24.477,,-53,-279,966,-146580,2870,8680,295,-154,-346
21:08:24.496,,-69,-356,893,-187390,12390,11200,324,-148,-342
21:08:24.514,,-96,-422,851,-218470,17780,12600,346,-141,-325
21:08:24.533,,-131,-430,803,-246540,17850,10710,370,-139,-315
21:08:24.552,,-138,-598,750,-259210,11690,7070,393,-138,-292
21:08:24.571,,-102,-679,790,-238280,420,6370,420,-136,-267
21:08:24.589,,-49,-680,779,-201600,-12390,4970,441,-130,-253
21:08:24.608,,12,-661,722,-166950,-23380,4760,459,-139,-229
21:08:24.627,,58,-706,742,-138320,-30730,9940,465,-138,-199
21:08:24.646,,37,-807,831,-111580,-32270,16800,483,-132,-184
21:08:24.665,,133,-902,1010,-74130,-30590,16310,484,-127,-181
21:08:24.683,,44,-361,962,-30030,-14490,-2380,490,-127,-168
21:08:24.702,,-72,-599,903,-27370,-10010,4550,487,-136,-175
21:08:24.721,,4,-816,913,-42700,-13440,3010,489,-129,-157
21:08:24.740,,-58,-729,938,-39480,-7140,-1890,493,-129,-159
21:08:24.758,,-66,-836,892,-23170,-6720,-980,493,-138,-154
21:08:24.777,,-96,-759,888,560,-5180,-700,493,-135,-153
21:08:24.796,,-104,-755,904,6370,-4760,770,495,-132,-156
21:08:24.815,,-125,-764,838,1610,-4410,2380,486,-133,-148
21:08:24.834,,-123,-781,840,1610,-2940,1750,495,-127,-157
21:08:24.852,,-95,-820,834,7280,-2030,2730,493,-132,-151
21:08:24.871,,-93,-798,823,17920,1470,3220,495,-126,-160
21:08:24.890,,-102,-747,810,30800,3010,3360,487,-127,-156
21:08:24.909,,-97,-765,807,42910,2170,3920,493,-129,-166
21:08:24.927,,-84,-764,819,61600,630,3990,480,-126,-180
21:08:24.946,,-63,-715,853,84000,-140,3710,484,-129,-177
21:08:24.965,,-63,-715,853,101290,1820,2030,483,-130,-198
21:08:24.984,,-83,-688,862,101290,1820,2030,475,-133,-213
21:08:25.002,,-79,-618,866,116480,2030,-1120,468,-127,-225
21:08:25.021,,-87,-584,868,126070,3290,-5040,454,-136,-231
21:08:25.040,,-93,-483,902,136780,3850,-8260,442,-136,-243
21:08:25.059,,-102,-418,930,133910,4200,-11550,427,-144,-267
21:08:25.078,,-114,-434,944,126560,4060,-15050,418,-136,-277
21:08:25.096,,-108,-423,954,129290,1890,-19390,393,-127,-291
21:08:25.115,,-91,-402,949,141680,-700,-24150,384,-145,-298
21:08:25.134,,-76,-382,925,162260,-3570,-28140,361,-139,-312
21:08:25.153,,-77,-281,938,181510,-6510,-30100,334,-144,-330
21:08:25.172,,-53,-184,985,180460,-9240,-32200,306,-142,-337
21:08:25.190,,-39,-117,1037,162960,-8680,-32970,294,-159,-340
21:08:25.209,,-28,-79,1065,137620,-7280,-32410,280,-153,-348
21:08:25.228,,-13,-87,1080,108990,-5250,-30240,268,-154,-352
21:08:25.247,,7,-109,1085,78820,-2310,-27580,256,-154,-363
21:08:25.265,,8,-149,1083,55510,2590,-24850,255,-159,-363
21:08:25.284,,3,-179,1070,44450,6860,-20930,255,-165,-363
21:08:25.303,,-20,-143,1051,41650,10850,-16030,243,-156,-366
21:08:25.322,,-39,-109,1041,36050,13090,-11690,234,-163,-367
21:08:25.340,,-52,-87,1031,25200,14490,-8610,237,-154,-370
21:08:25.359,,-71,-98,1014,11900,16170,-6510,238,-162,-373
21:08:25.378,,-89,-101,1006,7420,16450,-4270,238,-162,-373
21:08:25.397,,-99,-97,1002,8050,15330,-1890,234,-148,-373
21:08:25.416,,-111,-75,995,8960,14000,-70,228,-148,-376
21:08:25.434,,-113,-61,994,8260,12670,1680,228,-142,-378
21:08:25.453,,-117,-43,992,5320,12110,2800,231,-144,-370
21:08:25.472,,-118,-27,993,2170,12040,3220,234,-144,-373
21:08:25.491,,-124,-22,991,70,11900,3080,232,-144,-378
21:08:25.509,,-122,-19,989,-490,10290,2730,228,-136,-379
21:08:25.528,,-130,-1,994,-1330,9450,2170,234,-141,-381
21:08:25.547,,-139,0,987,-2100,7420,2030,228,-135,-376
21:08:25.566,,-132,-10,995,-3920,4550,1680,232,-130,-376
21:08:25.585,,-137,4,1003,-4130,2660,1120,229,-132,-387
21:08:25.603,,-135,9,1022,-3920,490,560,231,-132,-378
21:08:25.622,,-132,19,1018,-4480,-1540,-630,232,-133,-379
21:08:25.641,,-122,15,1038,-5040,-3010,-1820,232,-123,-382
21:08:25.660,,-121,7,1052,-5110,-3710,-2800,226,-142,-379
21:08:25.678,,-120,4,1060,-5250,-4060,-3500,237,-138,-378
21:08:25.697,,-120,-13,1062,-5040,-4760,-3640,228,-129,-375
21:08:25.716,,-111,-17,1065,-2940,-5670,-3710,243,-142,-367
21:08:25.735,,-105,-9,1066,-630,-5530,-3500,235,-141,-364
21:08:25.754,,-99,-7,1064,-280,-5040,-3360,238,-135,-366
21:08:25.772,,-105,-21,1066,-1610,-4060,-3220,229,-147,-375
21:08:25.791,,-108,-33,1065,-420,-4200,-3010,232,-138,-379
21:08:25.810,,-107,-21,1061,2030,-4410,-2870,237,-142,-378
21:08:25.829,,-104,-18,1061,2100,-4200,-2660,231,-145,-385
21:08:25.847,,-105,-28,1062,1190,-4200,-2590,231,-145,-375
21:08:25.866,,-109,-27,1065,2240,-4060,-2310,231,-145,-376
21:08:25.885,,-108,-12,1062,3290,-3780,-2030,237,-141,-381
21:08:25.904,,-105,-12,1059,1470,-3290,-2030,231,-139,-376
21:08:25.923,,-107,-22,1061,-490,-2660,-2100,231,-147,-375
21:08:25.941,,-105,-27,1061,-700,-2310,-1890,234,-142,-373
21:08:25.960,,-107,-24,1059,0,-1890,-1680,234,-139,-372
21:08:25.979,,-105,-21,1058,-140,-1330,-1540,228,-139,-373
21:08:25.998,,-104,-22,1052,-770,-840,-1260,232,-139,-370
21:08:26.016,,-102,-24,1058,-1260,-420,-1050,226,-142,-375
21:08:26.035,,-105,-30,1054,-1680,0,-910,231,-141,-369
21:08:26.054,,-101,-29,1053,-910,-210,-630,229,-141,-382
21:08:26.073,,-101,-24,1055,-630,-140,-280,229,-138,-376
21:08:26.091,,-98,-24,1048,-770,-70,-280,234,-139,-369
21:08:26.110,,-101,-22,1045,-1260,280,-420,238,-150,-367
21:08:26.129,,-101,-21,1044,-1680,280,-420,234,-141,-364
21:08:26.148,,-101,-19,1048,-2240,350,-490,226,-148,-372
21:08:26.167,,-105,-21,1044,-3080,280,-630,235,-141,-366
21:08:26.185,,-106,-18,1041,-3500,-70,-700,237,-142,-369
21:08:26.204,,-105,-21,1040,-3710,-560,-560,237,-141,-373
21:08:26.223,,-102,-17,1043,-4060,-840,-840,240,-142,-369
21:08:26.242,,-102,-21,1047,-4410,-980,-1330,234,-148,-381
21:08:26.260,,-101,-24,1051,-4340,-1330,-1680,238,-147,-375
21:08:26.279,,-101,-28,1054,-4410,-1400,-2030,235,-145,-379
21:08:26.298,,-104,-28,1055,-4340,-1330,-2030,240,-144,-370
21:08:26.317,,-101,-29,1057,-4130,-1540,-1750,240,-144,-370
21:08:26.336,,-101,-27,1060,-3920,-1470,-1540,237,-142,-376
21:08:26.354,,-100,-28,1055,-3710,-1260,-1610,237,-141,-375
21:08:26.373,,-102,-24,1057,-3780,-910,-1750,231,-145,-370
21:08:26.392,,-105,-40,1057,-3500,-980,-1960,235,-142,-376
21:08:26.411,,-107,-37,1052,-1610,-1330,-1960,232,-145,-373
21:08:26.429,,-108,-29,1050,70,-1820,-1680,234,-145,-367
21:08:26.448,,-104,-26,1050,0,-2030,-1610,234,-138,-375
21:08:26.467,,-105,-34,1050,-490,-2030,-1820,238,-142,-370
21:08:26.486,,-105,-30,1049,0,-2240,-2100,246,-136,-372
21:08:26.505,,-106,-38,1046,70,-2310,-2310,237,-139,-367
21:08:26.523,,-103,-36,1048,-420,-2310,-2450,237,-147,-369
21:08:26.542,,-102,-47,1053,-840,-2450,-2310,235,-145,-364
21:08:26.561,,-99,-45,1057,-140,-2450,-1960,241,-151,-364
21:08:26.580,,-97,-40,1054,-350,-2030,-1610,237,-150,-366
21:08:26.598,,-99,-43,1054,-1540,-1470,-1190,243,-153,-366
21:08:26.617,,-99,-46,1060,-1890,-1190,-770,243,-145,-367
21:08:26.636,,-100,-45,1059,-1260,-980,-560,241,-147,-372
21:08:26.655,,-95,-36,1061,-420,-1190,-490,232,-144,-378
21:08:26.674,,-92,-35,1061,-910,-910,-630,231,-147,-372
21:08:26.692,,-89,-36,1059,-1050,-490,-700,237,-141,-372
21:08:26.711,,-87,-34,1057,-910,-350,-700,232,-150,-373
21:08:26.730,,-86,-33,1054,-770,-280,-770,232,-141,-369
21:08:26.749,,-87,-33,1051,-210,-700,-910,235,-144,-370
21:08:26.763,>gest3_circle_cw,,,,,,,,,
21:08:26.767,,-87,-31,1051,-210,-700,-910,232,-150,-370
21:08:26.786,,-86,-24,1052,280,-1190,-1050,234,-145,-373
21:08:26.805,,-91,-30,1056,350,-1400,-1400,228,-144,-375
21:08:26.824,,-88,-21,1057,1400,-2100,-1820,240,-151,-367
21:08:26.842,,-84,-20,1058,1960,-2730,-2450,243,-147,-369
21:08:26.861,,-84,-18,1057,1750,-2870,-3080,237,-147,-375
21:08:26.880,,-86,-27,1058,1190,-2870,-3500,229,-151,-370
21:08:26.899,,-90,-31,1059,1330,-2940,-3920,241,-147,-364
21:08:26.918,,-90,-36,1061,1890,-2870,-4130,237,-153,-370
21:08:26.936,,-85,-35,1061,2030,-2800,-4340,237,-154,-366
21:08:26.955,,-89,-41,1055,1750,-2310,-4270,229,-154,-375
21:08:26.974,,-92,-43,1053,2240,-2170,-3780,235,-150,-373
21:08:26.993,,-97,-40,1048,2450,-2100,-3290,238,-145,-373
21:08:27.011,,-101,-39,1048,2800,-2240,-3150,235,-150,-366
21:08:27.030,,-101,-32,1046,3920,-2660,-3150,234,-150,-375
21:08:27.049,,-106,-24,1041,4900,-2940,-3290,232,-151,-370
21:08:27.068,,-106,-21,1035,5600,-3780,-3500,222,-154,-372
21:08:27.087,,-105,-18,1038,6370,-4480,-3850,228,-151,-372
21:08:27.105,,-102,-17,1037,7630,-5390,-4410,225,-157,-375
21:08:27.124,,-98,-13,1039,8820,-6230,-5110,225,-159,-375
21:08:27.143,,-95,-10,1039,8750,-6860,-5600,226,-154,-372
21:08:27.162,,-88,-4,1038,6720,-7630,-5740,220,-153,-370
21:08:27.180,,-79,-8,1044,2940,-7980,-5670,214,-157,-367
21:08:27.199,,-82,-19,1047,910,-7700,-5670,219,-151,-367
21:08:27.218,,-76,-14,1041,420,-7980,-5810,217,-163,-375
21:08:27.237,,-77,-19,1038,-910,-7770,-5810,222,-160,-373
21:08:27.256,,-80,-18,1033,-2100,-8260,-5670,222,-160,-373
21:08:27.274,,-87,-29,1024,-4270,-8820,-6020,217,-159,-366
21:08:27.293,,-101,-46,1019,-5810,-9520,-6440,222,-166,-366
21:08:27.312,,-111,-74,1023,-7700,-10640,-6860,217,-168,-360
21:08:27.331,,-131,-115,1027,-10080,-11550,-6650,220,-168,-364
21:08:27.349,,-114,-201,1000,-14770,-14210,-6020,219,-171,-366
21:08:27.368,,-143,-269,999,-21000,-15330,-4060,228,-172,-361
21:08:27.387,,-159,-374,998,-24220,-17570,2940,226,-168,-363
21:08:27.406,,-185,-459,1039,-23660,-19880,14630,231,-171,-354
21:08:27.425,,-190,-540,1144,-19460,-21070,30940,240,-177,-349
21:08:27.443,,-193,-539,1289,-14700,-18340,50820,244,-180,-340
21:08:27.462,,-185,-560,1434,-12600,-11410,73080,268,-163,-345
21:08:27.481,,-159,-518,1549,-8260,-350,94850,265,-165,-343
21:08:27.500,,-113,-427,1669,-1750,14910,115430,274,-162,-339
21:08:27.518,,-50,-303,1740,3780,33670,132020,283,-142,-349
21:08:27.537,,12,-144,1737,8260,54460,143430,309,-127,-354
21:08:27.556,,62,18,1696,12390,75040,149590,309,-114,-358
21:08:27.575,,103,168,1658,13650,94290,149170,316,-94,-366
21:08:27.593,,129,250,1577,12740,110040,143360,321,-73,-366
21:08:27.612,,140,289,1487,17290,120890,134260,331,-52,-372
21:08:27.631,,159,326,1417,29960,126140,122220,324,-18,-379
21:08:27.650,,174,373,1355,48580,127470,107660,321,-7,-388
21:08:27.669,,177,427,1303,70770,126840,90650,310,16,-397
21:08:27.687,,178,480,1204,89810,125300,70140,300,42,-408
21:08:27.706,,172,524,1092,100660,123200,47110,286,58,-408
21:08:27.725,,158,515,980,101570,119560,24290,276,78,-414
21:08:27.744,,148,483,878,99400,113960,1820,262,79,-414
21:08:27.762,,126,429,740,97090,106540,-20440,250,103,-421
21:08:27.781,,84,379,575,94360,97300,-42490,234,114,-423
21:08:27.800,,20,318,448,94640,84770,-61250,223,136,-430
21:08:27.819,,-53,257,346,95830,67830,-76090,210,139,-436
21:08:27.838,,-115,216,269,97300,46970,-88620,186,139,-427
21:08:27.856,,-159,202,224,95900,23590,-99680,172,148,-436
21:08:27.875,,-192,194,218,90090,-490,-109620,169,145,-439
21:08:27.894,,-212,179,234,83580,-23100,-118720,156,126,-432
21:08:27.913,,-217,126,211,74060,-43890,-127820,141,124,-435
21:08:27.931,,-239,67,163,60620,-61600,-137060,147,114,-433
21:08:27.950,,-248,34,132,44310,-76580,-145250,135,102,-441
21:08:27.969,,-255,-2,139,25130,-88410,-150990,133,82,-433
21:08:27.988,,-305,-99,161,280,-95550,-153930,130,76,-445
21:08:28.007,,-411,-211,225,-24640,-97930,-154350,130,60,-442
21:08:28.025,,-500,-353,302,-44030,-100800,-151760,144,36,-445
21:08:28.044,,-551,-494,375,-57680,-106890,-145530,142,24,-442
21:08:28.063,,-569,-612,485,-68600,-113540,-134120,159,9,-433
21:08:28.082,,-597,-747,649,-77560,-116760,-117110,159,-13,-435
21:08:28.100,,-648,-910,832,-81830,-117390,-95410,172,-27,-432
21:08:28.119,,-657,-1001,992,-79030,-119070,-70350,172,-46,-417
21:08:28.138,,-601,-1026,1130,-70280,-120330,-40880,189,-69,-417
21:08:28.157,,-555,-1001,1267,-60690,-116060,-8260,196,-79,-412
21:08:28.176,,-531,-891,1402,-54040,-106820,21910,210,-96,-403
21:08:28.194,,-517,-725,1504,-48930,-94570,46620,207,-108,-396
21:08:28.213,,-449,-596,1520,-42420,-83510,64680,207,-108,-396
21:08:28.232,,-336,-441,1537,-34930,-73080,76020,225,-111,-393
21:08:28.251,,-236,-301,1579,-29680,-60270,83230,226,-114,-381
21:08:28.269,,-167,-207,1539,-27510,-46830,87010,252,-121,-382
21:08:28.288,,-106,-104,1500,-24570,-35280,86870,255,-124,-378
21:08:28.307,,-59,-16,1459,-21350,-24710,84280,267,-124,-364
21:08:28.326,,-13,48,1395,-19670,-14700,79310,276,-124,-373
21:08:28.345,,-1,104,1348,-19040,-5670,71890,288,-120,-366
21:08:28.363,,0,116,1298,-19950,840,63350,297,-117,-364
21:08:28.382,,-6,120,1261,-18760,5390,53410,303,-108,-361
21:08:28.401,,-22,95,1200,-15820,8400,43260,306,-108,-372
21:08:28.420,,-48,76,1146,-11200,9870,33320,321,-97,-364
21:08:28.438,,-68,16,1098,-6790,9170,24080,322,-102,-375
21:08:28.457,,-98,-55,1069,-3290,7700,15820,313,-93,-370
21:08:28.476,,-124,-120,1048,-420,5530,8680,322,-97,-363
21:08:28.495,,-145,-164,1030,3010,2660,3290,322,-96,-367
21:08:28.514,,-167,-181,1014,5740,280,-210,319,-99,-361
21:08:28.532,,-177,-198,991,6160,-1680,-2660,324,-94,-367
21:08:28.551,,-177,-198,991,6160,-1680,-2660,310,-93,-375
21:08:28.570,,-185,-210,988,5810,-2520,-4620,315,-91,-363
21:08:28.589,,-199,-214,997,5390,-2170,-6090,315,-88,-367
21:08:28.607,,-210,-221,1000,3780,-1750,-7280,318,-99,-370
21:08:28.626,,-215,-236,997,2310,-1680,-7700,309,-99,-373
21:08:28.645,,-218,-244,998,2030,-1540,-7280,306,-94,-369
21:08:28.664,,-224,-236,991,1330,-1050,-6370,307,-96,-369
21:08:28.683,,-231,-234,992,-1190,-700,-5180,306,-94,-379
21:08:28.701,,-237,-245,996,-3010,-1190,-4060,310,-87,-373
21:08:28.720,,-246,-248,1007,-2310,-1820,-2800,309,-96,-366
21:08:28.739,,-255,-238,1012,-560,-2660,-1190,312,-91,-370
21:08:28.758,,-250,-219,1022,140,-3500,140,306,-100,-373
21:08:28.776,,-235,-213,1027,-700,-3710,1120,304,-99,-363
21:08:28.795,,-225,-216,1035,-1330,-3010,1750,304,-97,-372
21:08:28.814,,-218,-217,1035,-1120,-1960,2100,309,-100,-369
21:08:28.833,,-210,-221,1035,-1260,-910,2660,306,-91,-373
21:08:28.852,,-203,-224,1030,-2100,-140,3290,313,-93,-370
21:08:28.870,,-199,-229,1023,-1820,280,4130,316,-103,-366
21:08:28.889,,-197,-216,1018,-350,490,4550,316,-99,-364
21:08:28.908,,-195,-201,1010,630,420,4340,309,-103,-369
21:08:28.927,,-198,-192,1005,-140,560,3500,313,-91,-375
21:08:28.945,,-203,-197,998,-910,350,2590,313,-97,-376
21:08:28.964,,-203,-192,1008,-280,0,1610,312,-97,-364
21:08:28.983,,-207,-189,1006,-280,0,420,309,-91,-370
21:08:29.002,,-201,-193,1008,-140,-630,-770,312,-94,-367
21:08:29.020,,-203,-193,1010,-140,-490,-1610,313,-91,-366
21:08:29.039,,-206,-195,1003,-560,-490,-2170,316,-94,-369
21:08:29.058,,-212,-202,1011,-770,-490,-2590,316,-99,-372
21:08:29.077,,-213,-205,1009,-210,-840,-2940,313,-96,-378
21:08:29.096,,-216,-204,1014,700,-1260,-3080,309,-96,-369
21:08:29.114,,-219,-207,1020,1120,-1610,-3220,310,-97,-369
21:08:29.133,,-226,-207,1013,1400,-1610,-3360,310,-97,-369
21:08:29.152,,-226,-208,1016,1960,-1750,-3080,307,-96,-372
21:08:29.171,,-230,-210,1019,2100,-1680,-2730,303,-91,-373
21:08:29.189,,-233,-210,1014,2170,-1750,-2590,313,-102,-367
21:08:29.208,,-235,-208,1012,2240,-1680,-2310,309,-96,-369
21:08:29.227,,-235,-205,1009,1610,-1750,-2030,309,-99,-376
21:08:29.246,,-232,-214,1014,350,-1750,-1400,312,-100,-366
21:08:29.265,,-226,-217,1014,350,-1890,-700,318,-97,-379
21:08:29.283,,-222,-212,1012,1120,-1890,-140,315,-99,-372
21:08:29.302,,-221,-205,1010,910,-1820,140,313,-103,-369
21:08:29.321,,-221,-214,1009,280,-1750,350,304,-102,-367
21:08:29.340,,-218,-211,1014,490,-1750,420,312,-99,-370
21:08:29.358,,-214,-206,1012,560,-1820,560,310,-99,-370
21:08:29.377,,-208,-199,1014,140,-1820,700,310,-103,-363
21:08:29.396,,-207,-202,1018,-840,-1470,700,304,-100,-372
21:08:29.415,,-207,-205,1017,-910,-1400,560,309,-100,-370
21:08:29.434,,-205,-200,1016,-420,-1470,350,306,-99,-376
21:08:29.452,,-200,-199,1015,-140,-1750,140,315,-108,-364
21:08:29.471,,-199,-196,1021,-700,-1470,-70,316,-100,-367
21:08:29.490,,-201,-201,1018,-1120,-1260,-210,312,-100,-372
21:08:29.509,,-201,-199,1023,-840,-1190,-420,309,-102,-366
21:08:29.527,,-201,-196,1019,-840,-1190,-840,310,-96,-364
21:08:29.546,,-201,-198,1017,-1260,-1050,-1330,315,-102,-370
21:08:29.565,,-203,-204,1016,-1470,-980,-1610,318,-105,-373
21:08:29.584,,-203,-204,1024,-840,-1190,-1610,313,-103,-381
21:08:29.603,,-205,-202,1021,-770,-1050,-1470,307,-100,-366
21:08:29.621,,-206,-202,1020,-770,-1120,-1470,300,-103,-366
21:08:29.640,,-211,-198,1021,-700,-840,-1610,313,-97,-366
21:08:29.659,,-210,-204,1020,-210,-1120,-1750,319,-108,-364
21:08:29.678,,-211,-201,1023,-70,-1050,-1820,312,-105,-373
21:08:29.696,,-209,-204,1017,-490,-980,-1960,312,-102,-369
21:08:29.715,,-210,-205,1027,-910,-700,-1820,312,-103,-367
21:08:29.734,,-210,-212,1023,-1190,-420,-1610,303,-99,-372
21:08:29.753,,-207,-213,1020,-280,-560,-1260,307,-103,-372
21:08:29.771,,-211,-207,1019,350,-350,-980,313,-106,-373
21:08:29.790,,-211,-209,1010,-350,-420,-770,307,-100,-369
21:08:29.809,,-216,-213,1014,-700,-350,-490,309,-96,-369
21:08:29.828,,-217,-209,1017,0,-630,-70,307,-100,-372
21:08:29.847,,-212,-209,1018,630,-1050,-70,310,-106,-367
21:08:29.865,,-206,-200,1016,700,-1120,-350,312,-100,-366
21:08:29.884,,-204,-205,1016,-140,-1050,-770,312,-102,-360
21:08:29.903,,-206,-210,1016,-980,-700,-910,318,-100,-363
21:08:29.922,,-205,-214,1015,-1050,-630,-770,310,-100,-366
21:08:29.941,,-206,-212,1023,-980,-350,-420,313,-102,-364
21:08:29.959,,-205,-211,1022,-1470,-210,-280,310,-96,-375
21:08:29.978,,-205,-211,1014,-1400,-140,-210,301,-102,-370
21:08:29.997,,-204,-207,1015,-840,-140,-140,312,-102,-364
21:08:30.016,,-207,-208,1016,-770,-140,-280,313,-103,-369
21:08:30.034,,-208,-207,1020,-560,-280,-350,310,-106,-363
21:08:30.053,,-206,-207,1016,-140,-630,-210,306,-102,-364
21:08:30.072,,-208,-202,1019,560,-700,-70,310,-103,-376
21:08:30.091,,-210,-202,1019,910,-770,-210,310,-103,-376
21:08:30.109,,-210,-203,1017,1050,-840,-490,310,-99,-378
21:08:30.128,,-212,-202,1015,1050,-910,-630,304,-103,-369
21:08:30.147,,-213,-206,1018,910,-1120,-700,318,-108,-367
21:08:30.166,,-213,-210,1022,1400,-1400,-700,313,-105,-364
21:08:30.185,,-210,-205,1020,2170,-1400,-630,312,-108,-363
21:08:30.203,,-209,-201,1022,1680,-1050,-630,315,-100,-369
21:08:30.222,,-210,-208,1020,350,-490,-700,307,-100,-375
21:08:30.241,,-214,-212,1018,210,-210,-490,312,-109,-373
21:08:30.260,,-216,-208,1014,630,-210,-350,301,-96,-373
21:08:30.278,,-215,-206,1013,560,-490,-140,306,-96,-370
21:08:30.297,,-212,-204,1014,490,-630,280,303,-102,-369
21:08:30.316,,-212,-200,1016,770,-770,420,309,-93,-364
21:08:30.335,,-212,-200,1016,770,-770,420,310,-102,-369
21:08:30.354,,-208,-198,1014,910,-840,350,309,-100,-366
21:08:30.372,,-210,-197,1011,630,-560,280,307,-105,-370
21:08:30.391,,-211,-202,1011,-70,-560,140,309,-103,-361
21:08:30.410,,-211,-207,1011,-280,-980,210,309,-103,-361
21:08:30.429,,-208,-203,1020,210,-1470,560,313,-102,-375
21:08:30.447,,-207,-197,1019,560,-1540,840,303,-97,-366
21:08:30.466,,-204,-192,1025,560,-1610,840,303,-96,-372
21:08:30.485,,-205,-191,1024,70,-1400,630,310,-93,-372
21:08:30.504,,-207,-191,1022,-280,-1260,350,307,-97,-373
21:08:30.523,,-210,-193,1030,-420,-1120,210,309,-105,-373
21:08:30.541,,-205,-196,1027,0,-1260,-70,307,-99,-364
21:08:30.560,,-203,-194,1029,560,-980,-140,306,-102,-373
21:08:30.579,,-200,-194,1024,490,-770,-210,306,-99,-372
21:08:30.598,,-202,-196,1025,-70,-210,-210,307,-94,-378
21:08:30.616,,-204,-201,1018,-560,70,-210,301,-100,-367
21:08:30.635,,-204,-197,1017,-490,0,-210,315,-108,-367
21:08:30.654,,-203,-193,1011,-140,-280,-70,313,-99,-376
21:08:30.673,,-202,-183,1014,-700,-420,-140,303,-102,-373
21:08:30.692,,-203,-188,1012,-3150,-280,-560,309,-108,-370
21:08:30.710,,-203,-201,1011,-4340,-280,-1120,304,-97,-367
21:08:30.729,,-208,-201,1012,-3150,-350,-1330,306,-106,-367
21:08:30.748,,-206,-202,1009,-1890,-980,-1540,303,-93,-366
21:08:30.767,,-206,-204,1012,-560,-1610,-1470,309,-109,-364
21:08:30.785,,-204,-194,1016,630,-1890,-1470,310,-102,-370
21:08:30.804,,-205,-190,1017,490,-1750,-1540,312,-100,-361
21:08:30.823,,-206,-197,1019,-350,-1680,-1680,309,-100,-369
21:08:30.842,,-211,-203,1021,-280,-1680,-1750,303,-102,-366
21:08:30.861,,-212,-202,1019,770,-2030,-1750,310,-103,-366
21:08:30.879,,-212,-197,1022,1610,-2240,-1610,309,-102,-373
21:08:30.898,,-210,-197,1021,1260,-2310,-1540,307,-109,-355
21:08:30.917,,-208,-199,1022,700,-2100,-1540,318,-109,-361
21:08:30.936,,-207,-201,1024,560,-1750,-1610,312,-97,-364
21:08:30.954,,-208,-203,1020,350,-1470,-1540,306,-109,-360
21:08:30.973,,-211,-204,1019,210,-1470,-1470,313,-118,-361
21:08:30.992,,-211,-205,1017,560,-1610,-1330,310,-109,-361
21:08:31.011,,-210,-202,1017,1120,-1820,-1050,315,-109,-369
21:08:31.029,,-206,-194,1017,1330,-1890,-910,315,-109,-369
21:08:31.048,,-203,-197,1015,630,-1750,-1120,301,-106,-367
21:08:31.067,,-200,-198,1013,420,-1750,-1330,304,-114,-367
21:08:31.086,,-199,-202,1016,280,-1750,-1400,309,-102,-367
21:08:31.105,,-200,-200,1021,-140,-1540,-1330,304,-106,-366
21:08:31.123,,-199,-204,1027,-350,-1540,-910,310,-108,-363
21:08:31.142,,-198,-199,1025,280,-1540,-630,301,-109,-366
21:08:31.151,<gest3_circle_cw,,,,,,,,,
21:08:31.161,,-198,-192,1025,490,-1260,-560,316,-108,-358
21:08:31.180,,-199,-192,1026,-70,-770,-630,309,-102,-372
21:08:31.198,,-198,-198,1022,-700,-490,-840,315,-111,-357
21:08:31.217,,-196,-199,1019,-140,-630,-770,303,-106,-364
21:08:31.236,,-197,-195,1018,700,-840,-560,313,-100,-370
21:08:31.255,,-195,-193,1019,630,-1050,-700,303,-105,-375
21:08:31.274,,-194,-197,1020,350,-1260,-910,300,-106,-369
21:08:31.292,,-195,-198,1021,560,-1260,-1050,301,-103,-370
21:08:31.311,,-195,-195,1023,770,-1190,-1120,301,-112,-373
21:08:31.330,,-197,-195,1023,350,-1190,-1260,306,-103,-361
21:08:31.349,,-199,-199,1023,280,-1260,-1330,303,-108,-373
21:08:31.367,,-202,-197,1024,770,-1260,-1260,307,-103,-369
21:08:31.386,,-203,-195,1019,840,-1260,-1260,306,-106,-369
21:08:31.405,,-202,-198,1024,770,-1190,-1050,301,-102,-372
21:08:31.424,,-200,-197,1026,420,-910,-1050,306,-103,-366
21:08:31.443,,-200,-202,1017,140,-770,-1120,298,-108,-366
21:08:31.461,,-196,-201,1021,560,-700,-910,301,-106,-372
21:08:31.480,,-199,-197,1020,420,-420,-630,297,-103,-372
21:08:31.499,,-195,-198,1014,0,-490,-490,295,-106,-369
21:08:31.518,,-198,-196,1017,-70,-350,-490,303,-103,-373
21:08:31.536,,-202,-194,1012,-210,-560,-560,300,-100,-375
21:08:31.555,,-203,-199,1017,-70,-910,-630,300,-103,-376
21:08:31.574,,-201,-196,1019,420,-1400,-560,300,-100,-367
21:08:31.593,,-197,-191,1023,350,-1540,-350,291,-105,-372
21:08:31.612,,-196,-192,1025,-210,-1120,-350,295,-105,-373
21:08:31.630,,-194,-189,1024,-770,-630,-490,304,-109,-361
21:08:31.649,,-196,-193,1018,-1260,-140,-700,300,-103,-369
21:08:31.668,,-196,-195,1017,-1400,-140,-840,300,-106,-379
21:08:31.687,,-196,-197,1018,-1470,-420,-770,303,-114,-373
21:08:31.705,,-195,-195,1019,-1260,-770,-560,313,-112,-375
21:08:31.724,,-193,-194,1019,-980,-1050,-280,301,-111,-363
21:08:31.743,,-194,-186,1026,-770,-840,-210,307,-109,-373
21:08:31.762,,-195,-186,1022,-1540,-420,-560,303,-109,-369
21:08:31.781,,-195,-193,1024,-1890,-210,-840,306,-108,-366
21:08:31.799,,-196,-194,1024,-1540,-280,-840,300,-103,-370
21:08:31.818,,-197,-193,1022,-1330,-420,-700,301,-103,-370
21:08:31.837,,-194,-190,1023,-1190,-490,-700,304,-103,-369
21:08:31.856,,-195,-191,1019,-1260,-280,-840,304,-111,-369
21:08:31.874,,-198,-192,1019,-1400,-210,-1050,306,-108,-370
21:08:31.893,,-203,-194,1019,-1680,-420,-1120,306,-106,-366
21:08:31.912,,-203,-197,1019,-1470,-770,-1120,307,-108,-366
21:08:31.931,,-202,-193,1021,-910,-1120,-1190,301,-114,-364
21:08:31.950,,-202,-195,1022,-770,-1190,-1330,303,-106,-366
21:08:31.968,,-202,-196,1023,-840,-1120,-1400,304,-114,-369
21:08:31.987,,-204,-199,1025,-980,-980,-1330,304,-114,-369
21:08:32.006,,-200,-202,1025,-910,-1120,-1190,307,-108,-370
21:08:32.025,,-198,-201,1026,-630,-1120,-1190,301,-117,-370
21:08:32.043,,-196,-200,1024,-700,-1050,-1190,309,-108,-369
21:08:32.062,,-196,-196,1021,-840,-840,-1190,309,-103,-370
21:08:32.081,,-194,-194,1017,-1330,-630,-1120,301,-115,-367
21:08:32.100,,-195,-195,1015,-1820,-630,-1260,307,-108,-367
21:08:32.119,,-195,-195,1015,-1820,-630,-1260,301,-112,-373
