Sensors' Acquisition [Hz]: Acc@52.0 Gyro@52.0 Mag@52.0 
hh:mm:ss.ms, Annotation , AccX [mg], AccY, AccZ, GyroX [mdps], GyroY, GyroZ, MagX [mgauss], MagY, MagZ
18:43:41.408,,-253,-3,1030,-210,910,-770,-159,168,-420
18:43:41.427,,-250,-8,1024,-280,420,-140,-162,162,-426
18:43:41.445,,-246,-1,1025,350,0,560,-159,157,-418
18:43:41.464,,-245,10,1028,420,-140,910,-154,156,-432
18:43:41.483,,-245,14,1024,280,-140,910,-172,156,-421
18:43:41.502,,-248,17,1019,630,210,350,-166,160,-429
18:43:41.521,,-251,15,1014,1120,490,-280,-163,160,-427
18:43:41.539,,-251,11,1012,1330,630,-630,-165,160,-426
18:43:41.558,,-249,5,1012,1050,630,-700,-171,159,-423
18:43:41.577,,-249,1,1013,490,420,-560,-163,160,-430
18:43:41.596,,-251,-1,1014,140,140,0,-153,157,-427
18:43:41.614,,-255,4,1012,350,-280,630,-165,156,-418
18:43:41.633,,-255,14,1014,770,-630,910,-174,159,-420
18:43:41.652,,-252,20,1015,770,-630,980,-169,166,-426
18:43:41.671,,-249,19,1015,560,-210,770,-171,160,-436
18:43:41.690,,-248,13,1013,420,140,140,-169,166,-432
18:43:41.708,,-247,12,1012,420,350,-350,-171,156,-432
18:43:41.727,,-247,8,1015,-140,210,-280,-163,165,-424
18:43:41.746,,-246,6,1019,-490,-280,70,-166,160,-424
18:43:41.765,,-242,13,1024,0,-700,350,-163,168,-438
18:43:41.784,,-239,23,1025,420,-490,280,-166,168,-427
18:43:41.802,,-243,30,1019,560,280,-210,-163,165,-435
18:43:41.821,,-245,27,1017,350,1260,-980,-165,163,-433
18:43:41.840,,-251,17,1011,280,1820,-1750,-163,165,-436
18:43:41.859,,-251,7,1011,490,1470,-2520,-169,165,-427
18:43:41.877,,-253,-1,1010,630,1050,-2590,-165,160,-433
18:43:41.896,,-253,-3,1007,490,490,-2100,-168,168,-432
18:43:41.915,,-257,0,1010,70,350,-1400,-168,168,-433
18:43:41.934,,-258,3,1009,-140,140,-980,-172,169,-433
18:43:41.953,,-264,9,1006,-350,70,-840,-168,163,-430
18:43:41.959,>gest4_cross_right,,,,,,,,,
18:43:41.971,,-267,6,1010,-770,-420,-770,-168,163,-430
18:43:41.990,,-266,4,1012,-770,-1120,-700,-171,169,-426
18:43:42.009,,-263,11,1019,-420,-1540,-350,-165,165,-429
18:43:42.028,,-259,17,1021,-560,-1680,70,-159,168,-429
18:43:42.047,,-257,18,1019,-700,-1470,210,-172,162,-423
18:43:42.065,,-256,19,1016,-210,-980,-210,-169,154,-418
18:43:42.084,,-254,17,1012,280,-700,-770,-159,166,-435
18:43:42.103,,-249,10,1010,-140,-560,-1120,-165,168,-426
18:43:42.122,,-243,3,1006,-700,-770,-980,-172,168,-432
18:43:42.140,,-242,4,1004,-840,-910,-490,-174,166,-424
18:43:42.159,,-244,11,999,-490,-1400,0,-160,169,-427
18:43:42.178,,-247,22,990,-280,-2100,420,-169,160,-420
18:43:42.197,,-251,31,982,0,-2870,490,-172,160,-418
18:43:42.216,,-253,44,974,140,-3710,140,-165,157,-424
18:43:42.234,,-254,55,963,-700,-4480,-560,-159,163,-441
18:43:42.253,,-256,51,954,-2660,-5460,-1820,-177,169,-423
18:43:42.272,,-250,43,953,-3990,-6930,-3360,-171,160,-433
18:43:42.291,,-251,32,953,-4900,-8890,-4550,-162,162,-438
18:43:42.310,,-253,30,948,-5810,-11200,-4970,-159,154,-418
18:43:42.328,,-241,17,959,-6440,-14140,-4620,-163,156,-415
18:43:42.347,,-249,41,993,-8190,-16870,-3570,-165,159,-420
18:43:42.366,,-273,30,1025,-16520,-19390,-1050,-160,154,-432
18:43:42.385,,-291,-41,1098,-21070,-23800,2590,-157,150,-426
18:43:42.404,,-304,-62,1236,-10850,-29750,7140,-160,150,-424
18:43:42.422,,-301,4,1433,9800,-36120,13300,-163,145,-421
18:43:42.441,,-254,110,1665,27370,-38500,19600,-159,135,-417
18:43:42.460,,-177,226,1852,35700,-30100,23030,-162,127,-414
18:43:42.479,,-103,289,1954,31080,-7910,22190,-174,129,-406
18:43:42.497,,-72,213,1981,17780,25060,17010,-166,132,-411
18:43:42.516,,-110,59,1928,14770,61390,9730,-163,132,-409
18:43:42.535,,-182,-17,1838,35350,92190,3780,-172,141,-420
18:43:42.554,,-182,-17,1838,66780,113540,-210,-178,166,-420
18:43:42.573,,-254,-7,1704,66780,113540,-210,-184,181,-412
18:43:42.591,,-288,40,1548,91490,128380,-2730,-199,195,-420
18:43:42.610,,-277,61,1391,101850,140350,-5390,-226,214,-411
18:43:42.629,,-251,3,1189,100170,151970,-8750,-234,237,-417
18:43:42.648,,-218,-104,929,94430,163030,-13090,-240,264,-415
18:43:42.667,,-205,-203,669,88830,172340,-16870,-253,283,-411
18:43:42.685,,-213,-304,469,80710,176120,-17710,-265,309,-406
18:43:42.704,,-212,-363,310,72520,170800,-12320,-268,331,-393
18:43:42.723,,-218,-330,179,66150,156730,-840,-274,337,-382
18:43:42.742,,-245,-244,-25,57750,137270,14490,-280,354,-387
18:43:42.760,,-285,-115,-190,44800,115500,27930,-286,361,-382
18:43:42.779,,-328,4,-274,23800,93310,36960,-283,364,-387
18:43:42.798,,-339,66,-311,-980,69020,42700,-282,367,-387
18:43:42.817,,-354,75,-312,-19880,43400,45010,-283,364,-396
18:43:42.836,,-341,73,-287,-24850,16800,42630,-285,357,-394
18:43:42.854,,-344,137,-265,-27160,-7420,36610,-274,352,-397
18:43:42.873,,-357,174,-259,-42210,-30730,30590,-270,339,-405
18:43:42.892,,-377,163,-227,-67410,-54460,27020,-258,331,-411
18:43:42.911,,-392,116,-157,-89740,-79310,26530,-241,316,-420
18:43:42.930,,-372,124,-10,-102410,-106470,27370,-220,286,-430
18:43:42.948,,-355,181,156,-109970,-132300,27300,-205,265,-435
18:43:42.967,,-372,202,255,-121310,-153720,23590,-205,265,-435
18:43:42.986,,-378,191,390,-136010,-172550,16310,-189,240,-444
18:43:43.005,,-310,59,754,-146370,-191380,11620,-160,211,-448
18:43:43.023,,-243,-103,1247,-132930,-204750,10430,-150,184,-442
18:43:43.042,,-144,0,1687,-93310,-207970,9170,-133,160,-438
18:43:43.061,,-19,247,1901,-71260,-193550,5530,-126,126,-433
18:43:43.080,,60,328,1998,-86520,-159250,840,-118,112,-415
18:43:43.099,,25,86,1998,-120330,-113470,-4200,-99,99,-418
18:43:43.117,,-88,-260,1998,-126490,-71820,-4690,-84,94,-427
18:43:43.136,,-131,-390,1998,-90090,-48650,-630,-73,82,-424
18:43:43.155,,-123,-249,1998,-36050,-37940,10850,-63,73,-420
18:43:43.174,,-83,-45,1998,1470,-28770,24220,-63,75,-402
18:43:43.193,,-48,90,1952,16240,-14000,32830,-57,84,-411
18:43:43.211,,-91,134,1883,24220,8120,35630,-64,75,-415
18:43:43.230,,-133,133,1933,37590,30520,34160,-69,78,-415
18:43:43.249,,-142,93,1967,56350,51310,30940,-75,85,-414
18:43:43.268,,-115,31,1912,77000,72030,27580,-79,88,-427
18:43:43.286,,-91,19,1842,93590,94990,25620,-90,105,-426
18:43:43.305,,-79,48,1763,96390,119140,26530,-102,109,-426
18:43:43.324,,-89,37,1628,87010,142800,29960,-106,136,-441
18:43:43.343,,-88,-38,1408,79240,163450,32550,-117,156,-442
18:43:43.362,,-85,-98,1144,85470,179060,31990,-129,175,-448
18:43:43.380,,-82,-88,868,101990,187810,28770,-139,193,-456
18:43:43.399,,-71,-68,617,115850,188650,24220,-160,225,-453
18:43:43.418,,-48,-41,413,120610,182420,19250,-178,244,-448
18:43:43.437,,-58,-15,232,113470,170730,16590,-178,273,-445
18:43:43.456,,-72,-1,54,100310,150080,16940,-202,297,-439
18:43:43.474,,-98,16,-104,89390,123270,19880,-216,295,-430
18:43:43.493,,-86,99,-192,84350,93660,21630,-222,309,-429
18:43:43.512,,-78,210,-245,74620,65520,19250,-220,324,-423
18:43:43.531,,-94,279,-277,56980,39620,12600,-243,319,-411
18:43:43.550,,-150,334,-275,35770,14700,4270,-244,331,-412
18:43:43.568,,-201,377,-249,18410,-13160,-3010,-241,319,-412
18:43:43.587,,-229,457,-206,6860,-42770,-11340,-243,319,-406
18:43:43.606,,-244,566,-128,-3500,-70420,-21070,-252,309,-415
18:43:43.625,,-265,652,-57,-19180,-94990,-34440,-244,307,-420
18:43:43.643,,-283,660,-1,-40460,-116690,-52290,-235,295,-427
18:43:43.662,,-306,614,111,-58870,-135870,-71260,-232,273,-427
18:43:43.681,,-315,563,323,-69020,-154280,-89390,-228,267,-426
18:43:43.700,,-340,455,504,-78190,-170030,-109340,-216,252,-433
18:43:43.719,,-415,341,685,-85610,-182350,-126490,-199,247,-438
18:43:43.737,,-487,160,960,-82950,-192080,-133000,-213,226,-429
18:43:43.756,,-426,14,1234,-75530,-198940,-134050,-207,208,-427
18:43:43.775,,-310,-142,1484,-65310,-195090,-127960,-196,196,-426
18:43:43.794,,-186,-282,1697,-53830,-178780,-119840,-201,187,-418
18:43:43.813,,-132,-367,1824,-46620,-149730,-109830,-202,174,-414
18:43:43.831,,-162,-387,1863,-44730,-115290,-94430,-199,166,-417
18:43:43.850,,-183,-443,1846,-45640,-85190,-74830,-199,171,-418
18:43:43.869,,-207,-436,1760,-39270,-60200,-54040,-198,163,-409
18:43:43.888,,-244,-336,1632,-27440,-40040,-34650,-195,162,-417
18:43:43.907,,-276,-226,1523,-18270,-25620,-17990,-198,160,-399
18:43:43.925,,-279,-134,1416,-14280,-15120,-6790,-190,159,-418
18:43:43.944,,-270,-80,1320,-11480,-6440,-630,-193,151,-406
18:43:43.963,,-260,-51,1234,-6440,700,1050,-193,151,-406
18:43:43.982,,-262,-34,1175,910,5950,980,-195,154,-403
18:43:44.000,,-256,5,1133,7420,8750,1050,-193,159,-405
18:43:44.019,,-246,28,1096,7980,10150,2100,-192,160,-409
18:43:44.038,,-238,21,1060,4480,10850,3360,-198,157,-406
18:43:44.057,,-232,-1,1041,2800,11060,4130,-202,163,-406
18:43:44.076,,-227,4,1025,4760,10850,4270,-196,166,-403
18:43:44.094,,-216,10,1011,6580,10500,4270,-195,154,-405
18:43:44.113,,-208,23,999,6020,10150,4690,-202,169,-415
18:43:44.132,,-200,23,978,2170,9520,5670,-208,166,-415
18:43:44.151,,-196,11,973,-1750,8960,6650,-186,169,-415
18:43:44.169,,-195,5,973,-4270,7910,7000,-198,162,-415
18:43:44.188,,-191,-9,969,-4410,5950,6650,-207,168,-412
18:43:44.207,,-189,-2,981,-1680,4130,6090,-195,163,-426
18:43:44.226,,-185,17,985,-70,2310,5670,-187,157,-411
18:43:44.245,,-185,30,993,-1190,840,5810,-192,166,-412
18:43:44.263,,-186,31,1004,-3850,-70,6370,-196,171,-418
18:43:44.282,,-187,20,1018,-5530,-700,6440,-192,171,-420
18:43:44.301,,-189,26,1028,-4130,-910,5740,-190,165,-424
18:43:44.320,,-190,31,1027,-3010,-770,4690,-204,159,-418
18:43:44.339,,-189,31,1035,-2940,-420,3710,-193,169,-424
18:43:44.357,,-189,31,1035,-2940,-420,3710,-189,169,-415
18:43:44.376,,-194,26,1040,-3710,-70,3010,-190,169,-411
18:43:44.395,,-201,18,1043,-3710,70,2520,-195,169,-420
18:43:44.414,,-208,23,1048,-2310,210,1890,-187,165,-420
18:43:44.432,,-210,26,1048,-1610,490,1190,-178,168,-418
18:43:44.451,,-211,17,1043,-1610,770,490,-189,160,-418
18:43:44.470,,-211,10,1048,-840,1470,0,-193,174,-421
18:43:44.489,,-212,4,1038,-560,2520,-490,-192,175,-424
18:43:44.508,,-215,-3,1027,-1190,3500,-490,-184,165,-426
18:43:44.526,,-219,-18,1012,-1330,4130,-280,-190,172,-426
18:43:44.545,,-225,-16,1012,-490,4550,280,-192,165,-421
18:43:44.564,,-225,-9,1011,-770,4130,910,-183,165,-417
18:43:44.583,,-227,-6,1009,-2520,3500,1960,-180,171,-411
18:43:44.602,,-223,-4,1009,-3920,2590,2940,-180,166,-414
18:43:44.620,,-226,0,1007,-4340,2100,3500,-192,169,-421
18:43:44.639,,-218,3,1002,-3500,1610,3360,-183,171,-411
18:43:44.658,,-219,12,1004,-1820,1820,2520,-181,163,-409
18:43:44.677,,-216,13,1005,-980,1610,1330,-183,168,-417
18:43:44.695,,-216,9,1005,-1260,1190,350,-184,163,-417
18:43:44.714,,-212,4,1003,-1820,490,-210,-177,162,-415
18:43:44.733,,-211,-1,1007,-2450,-70,-210,-184,163,-415
18:43:44.752,,-211,-9,1013,-2660,-630,-210,-190,166,-414
18:43:44.771,,-215,-8,1014,-1890,-1120,-350,-177,171,-409
18:43:44.789,,-217,-10,1017,-630,-1750,-770,-178,171,-424
18:43:44.808,,-217,-5,1016,1260,-2380,-1260,-189,175,-424
18:43:44.827,,-218,-6,1016,2870,-2100,-1610,-192,159,-430
18:43:44.846,,-220,-8,1019,3850,-1540,-1750,-186,172,-423
18:43:44.865,,-219,-12,1020,5040,-840,-1890,-196,168,-418
18:43:44.883,,-224,-5,1012,5950,280,-1820,-187,169,-423
18:43:44.902,,-226,-1,1005,3990,1050,-1330,-189,174,-418
18:43:44.921,,-232,-12,989,280,1400,-350,-187,169,-414
18:43:44.940,,-235,-25,988,-1750,840,490,-180,162,-414
18:43:44.958,,-237,-21,988,-1120,-280,1120,-180,162,-414
18:43:44.977,,-235,-6,997,-140,-1540,1820,-190,166,-415
18:43:44.996,,-231,1,1010,-630,-2450,2380,-175,169,-423
18:43:45.015,,-226,2,1018,-1190,-2730,2520,-180,166,-420
18:43:45.034,,-221,3,1024,-910,-2660,2310,-187,171,-411
18:43:45.052,,-220,8,1027,-700,-2170,2030,-187,165,-417
18:43:45.071,,-217,2,1031,-770,-1680,2100,-174,162,-415
18:43:45.090,,-216,0,1032,-910,-1260,2240,-183,160,-417
18:43:45.109,,-211,0,1036,-910,-980,2590,-186,166,-421
18:43:45.128,,-211,4,1033,-1400,-770,3290,-183,160,-424
18:43:45.146,,-210,5,1032,-1890,-700,3850,-180,171,-421
18:43:45.165,,-211,5,1032,-1120,-910,4130,-183,163,-421
18:43:45.184,,-208,20,1033,560,-840,3990,-177,169,-417
18:43:45.203,,-208,31,1027,350,-280,3570,-177,163,-420
18:43:45.221,,-202,24,1025,-630,140,3150,-183,163,-420
18:43:45.240,,-201,28,1023,-840,910,2660,-186,162,-420
18:43:45.259,,-201,26,1018,-910,1540,2030,-180,172,-420
18:43:45.278,,-200,19,1010,-490,2030,1260,-175,163,-417
18:43:45.297,,-206,19,1005,-210,2590,840,-187,174,-424
18:43:45.315,,-209,13,1005,-1050,2520,630,-187,171,-421
18:43:45.334,,-212,5,1003,-1680,1890,490,-184,163,-421
18:43:45.353,,-216,9,1005,-1400,1120,490,-181,168,-420
18:43:45.372,,-218,12,1013,-1470,280,700,-186,157,-417
18:43:45.391,,-221,12,1014,-1680,-420,910,-190,165,-415
18:43:45.409,,-223,14,1016,-770,-770,1050,-180,165,-418
18:43:45.428,,-225,22,1017,140,-630,700,-178,162,-421
18:43:45.447,,-224,21,1012,-210,-140,-140,-189,169,-426
18:43:45.466,,-222,10,1010,-1400,490,-980,-184,157,-423
18:43:45.485,,-221,-5,1010,-2240,770,-1470,-184,168,-420
18:43:45.503,,-221,-13,1009,-2100,700,-1330,-184,162,-423
18:43:45.522,,-222,-12,1008,-2170,350,-630,-184,162,-426
18:43:45.541,,-223,-15,1011,-2590,-560,70,-184,165,-421
18:43:45.560,,-221,-8,1018,-2170,-1610,350,-177,165,-421
18:43:45.578,,-222,5,1026,-1540,-2380,280,-178,162,-411
18:43:45.597,,-220,11,1028,-1540,-2800,0,-192,160,-420
18:43:45.616,,-219,9,1028,-1750,-2660,-350,-181,166,-412
18:43:45.635,,-220,4,1033,-1610,-2100,-980,-184,162,-412
18:43:45.654,,-220,-5,1037,-1680,-1820,-1540,-177,162,-414
18:43:45.672,,-221,-15,1043,-1820,-2030,-1610,-184,162,-420
18:43:45.691,,-217,-20,1048,-1680,-2450,-980,-175,151,-412
18:43:45.710,,-216,-13,1046,-980,-2590,280,-178,160,-415
18:43:45.729,,-219,2,1043,-280,-2240,1540,-184,160,-417
18:43:45.748,,-221,11,1037,-70,-1470,1820,-175,162,-414
18:43:45.766,,-221,11,1029,140,-700,1120,-178,160,-414
18:43:45.785,,-220,11,1026,490,210,140,-183,151,-423
18:43:45.804,,-222,4,1022,-280,840,-630,-186,160,-424
18:43:45.823,,-222,-10,1016,-980,910,-700,-177,162,-423
18:43:45.841,,-222,-10,1014,-350,560,-490,-175,166,-415
18:43:45.860,,-221,-7,1009,350,0,-140,-186,166,-423
18:43:45.879,,-217,-5,1008,140,-140,350,-177,159,-423
18:43:45.898,,-216,-1,1013,-560,70,630,-178,168,-423
18:43:45.917,,-216,0,1010,-1260,350,490,-178,162,-421
18:43:45.935,,-217,0,1008,-1540,560,210,-178,162,-421
18:43:45.954,,-218,-2,1007,-2030,560,0,-175,166,-421
18:43:45.973,,-215,-12,1007,-1890,280,0,-186,162,-426
18:43:45.992,,-212,-7,1010,-770,-70,-70,-177,160,-420
18:43:46.010,,-214,-1,1008,-910,-280,70,-184,166,-432
18:43:46.029,,-214,-4,1011,-1540,-840,210,-178,160,-421
18:43:46.048,,-212,0,1016,-1120,-1260,-140,-180,163,-421
18:43:46.067,,-210,4,1019,-490,-1260,-560,-172,169,-427
18:43:46.086,,-209,4,1021,-700,-980,-910,-181,166,-421
18:43:46.104,,-214,1,1017,-1330,-350,-1120,-177,153,-415
18:43:46.123,,-220,-7,1015,-1470,-280,-1260,-174,157,-417
18:43:46.141,<gest4_cross_right,,,,,,,,,
18:43:46.142,,-220,-7,1015,-1470,-280,-1260,-172,162,-418
18:43:46.161,,-223,-9,1012,-840,-420,-1330,-180,160,-420
18:43:46.180,,-224,-8,1013,-560,-490,-910,-178,163,-420
18:43:46.198,,-225,-8,1013,-1120,-350,-210,-174,166,-423
18:43:46.217,,-223,-7,1013,-2030,0,350,-181,166,-426
18:43:46.236,,-227,-12,1014,-2870,-70,490,-181,165,-426
18:43:46.255,,-226,-12,1017,-2660,-560,420,-178,165,-426
18:43:46.273,,-224,-6,1024,-3080,-980,770,-166,162,-423
18:43:46.292,,-218,-10,1023,-4200,-1400,1540,-177,162,-420
18:43:46.311,,-215,-5,1027,-4340,-1120,2450,-184,166,-427
18:43:46.330,,-211,4,1024,-4410,-700,2940,-171,160,-429
18:43:46.349,,-211,6,1023,-5600,-70,2800,-169,160,-426
18:43:46.367,,-213,-14,1017,-6090,70,2100,-177,168,-421
18:43:46.386,,-211,-18,1016,-3290,210,1120,-174,160,-427
18:43:46.405,,-211,-6,1015,-770,280,420,-172,163,-427
18:43:46.424,,-207,-13,1015,-840,-280,210,-174,165,-426
18:43:46.443,,-206,-14,1014,-700,-630,140,-172,162,-429
18:43:46.461,,-209,-6,1011,-140,-630,140,-175,166,-433
18:43:46.480,,-212,-5,1012,-280,-560,70,-172,165,-427
18:43:46.499,,-214,-5,1007,-280,-490,-280,-175,156,-418
18:43:46.518,,-215,-7,1004,-140,-490,-980,-180,165,-429
18:43:46.537,,-218,-8,1006,0,-560,-1400,-174,159,-424
18:43:46.555,,-219,-15,1003,-770,-630,-1610,-178,160,-418
18:43:46.574,,-220,-21,1007,-1190,-700,-1610,-178,159,-421
18:43:46.593,,-219,-24,1011,-1120,-770,-1260,-172,159,-436
18:43:46.612,,-221,-21,1009,-1260,-910,-770,-174,166,-421
18:43:46.630,,-224,-18,1015,-1820,-980,-140,-162,159,-420
18:43:46.649,,-224,-22,1018,-2310,-1400,210,-174,160,-421
18:43:46.668,,-223,-15,1020,-1680,-1750,350,-174,163,-430
18:43:46.687,,-219,-9,1020,-1400,-1960,490,-177,157,-430
18:43:46.706,,-220,-9,1022,-1750,-2030,420,-177,157,-423
18:43:46.724,,-216,-12,1031,-1610,-2240,350,-178,166,-418
18:43:46.743,,-214,-14,1040,-1750,-2380,490,-169,160,-420
18:43:46.762,,-208,-14,1043,-1820,-2520,910,-159,156,-418
18:43:46.781,,-202,-6,1047,-1610,-2170,1400,-177,154,-418
18:43:46.800,,-198,0,1047,-1540,-1540,1330,-171,159,-426
18:43:46.818,,-196,0,1043,-1190,-910,770,-169,163,-420
18:43:46.837,,-196,0,1040,-420,-210,-280,-172,160,-424
18:43:46.856,,-198,-4,1029,140,630,-1190,-172,162,-418
18:43:46.875,,-201,-11,1016,0,1330,-1820,-169,156,-423
18:43:46.893,,-205,-20,1004,-840,1680,-1960,-165,157,-420
