Sensors' Acquisition [Hz]: Acc@52.0 Gyro@52.0 Mag@52.0 
hh:mm:ss.ms, Annotation , AccX [mg], AccY, AccZ, GyroX [mdps], GyroY, GyroZ, MagX [mgauss], MagY, MagZ
20:57:36.381,,-175,-32,1044,-840,-1120,-700,199,-127,-399
20:57:36.400,,-176,-27,1046,-490,-1120,-630,202,-109,-393
20:57:36.419,,-174,-28,1047,-700,-1050,-700,207,-120,-397
20:57:36.437,,-172,-29,1044,-630,-910,-700,207,-123,-397
20:57:36.456,,-173,-23,1043,-630,-700,-630,207,-126,-394
20:57:36.475,,-174,-27,1044,-1120,-420,-700,195,-118,-388
20:57:36.494,,-174,-30,1042,-1260,-420,-770,208,-124,-391
20:57:36.513,,-175,-31,1042,-840,-560,-840,207,-118,-397
20:57:36.531,,-175,-31,1039,-560,-700,-840,199,-117,-391
20:57:36.550,,-175,-29,1041,-560,-980,-770,201,-124,-388
20:57:36.569,,-176,-29,1044,-770,-1050,-700,198,-118,-390
20:57:36.588,,-178,-26,1045,-490,-1190,-560,202,-117,-397
20:57:36.607,,-179,-24,1046,-350,-1260,-700,205,-126,-394
20:57:36.625,,-177,-23,1049,-280,-1190,-910,204,-117,-391
20:57:36.644,,-180,-27,1048,-560,-840,-1050,199,-120,-393
20:57:36.663,,-181,-29,1050,-630,-770,-980,202,-118,-396
20:57:36.682,,-183,-30,1051,-420,-980,-700,201,-115,-394
20:57:36.701,,-182,-27,1052,210,-1190,-560,208,-123,-390
20:57:36.719,,-180,-25,1053,560,-1190,-560,207,-126,-388
20:57:36.738,,-179,-31,1055,490,-980,-560,199,-127,-397
20:57:36.757,,-178,-30,1055,700,-770,-560,208,-118,-388
20:57:36.776,,-178,-29,1052,770,-560,-350,205,-127,-390
20:57:36.794,,-177,-27,1048,630,-420,-70,202,-124,-391
20:57:36.813,,-175,-26,1045,770,-280,0,207,-126,-394
20:57:36.832,,-174,-23,1042,1190,-350,-140,208,-126,-387
20:57:36.851,,-175,-24,1039,1120,-420,-490,213,-124,-394
20:57:36.870,,-175,-26,1037,910,-490,-630,204,-123,-396
20:57:36.888,,-175,-31,1036,630,-770,-560,207,-123,-391
20:57:36.907,,-172,-28,1036,1050,-1190,-280,205,-126,-394
20:57:36.926,,-172,-21,1037,1050,-1330,-280,205,-129,-388
20:57:36.945,,-171,-25,1039,350,-1540,-420,205,-129,-388
20:57:36.964,,-172,-25,1044,70,-1470,-490,213,-126,-387
20:57:36.982,,-174,-23,1044,0,-1470,-560,211,-132,-396
20:57:37.001,,-177,-23,1049,350,-1470,-490,204,-121,-390
20:57:37.020,,-176,-22,1053,630,-1400,-490,198,-121,-397
20:57:37.039,,-172,-19,1053,630,-1260,-490,205,-121,-399
20:57:37.058,,-172,-21,1053,280,-770,-560,201,-126,-396
20:57:37.076,,-172,-24,1050,0,-490,-700,196,-126,-396
20:57:37.095,,-172,-25,1049,350,-350,-630,204,-118,-388
20:57:37.114,,-172,-22,1047,840,-420,-490,198,-127,-393
20:57:37.133,,-171,-16,1043,840,-560,-350,204,-123,-393
20:57:37.151,,-172,-13,1042,490,-490,-420,198,-120,-408
20:57:37.166,>gest7_left,,,,,,,,,
20:57:37.170,,-174,-15,1042,420,-630,-630,199,-123,-400
20:57:37.189,,-175,-13,1039,770,-980,-980,199,-118,-397
20:57:37.208,,-173,-16,1042,980,-1260,-1260,199,-118,-396
20:57:37.227,,-173,-16,1042,980,-1470,-1470,205,-118,-399
20:57:37.245,,-171,-21,1045,980,-1470,-1470,196,-121,-393
20:57:37.264,,-172,-20,1049,910,-1470,-1400,201,-117,-397
20:57:37.283,,-173,-21,1048,840,-1470,-1330,201,-120,-388
20:57:37.302,,-175,-14,1047,1120,-1330,-1190,199,-124,-399
20:57:37.321,,-180,-12,1047,1190,-1120,-1330,202,-126,-384
20:57:37.339,,-180,-14,1046,1120,-1050,-1470,198,-127,-394
20:57:37.358,,-179,-18,1048,1330,-1190,-1610,199,-123,-390
20:57:37.377,,-177,-16,1046,1890,-1400,-1680,198,-120,-396
20:57:37.396,,-174,-16,1045,2100,-1400,-1750,195,-124,-400
20:57:37.415,,-174,-17,1043,1750,-1260,-1680,196,-121,-393
20:57:37.433,,-176,-15,1038,1610,-1260,-1540,201,-124,-393
20:57:37.452,,-182,-2,1037,1400,-1400,-1610,207,-120,-390
20:57:37.471,,-182,-11,1038,420,-1820,-2100,198,-120,-391
20:57:37.490,,-181,-13,1036,840,-2380,-2520,204,-136,-396
20:57:37.508,,-175,-5,1039,1820,-2940,-2660,199,-129,-388
20:57:37.527,,-172,-6,1037,1260,-2940,-2870,193,-127,-388
20:57:37.546,,-171,-11,1040,420,-2940,-3220,193,-126,-388
20:57:37.565,,-173,-17,1042,70,-3290,-3360,193,-129,-388
20:57:37.584,,-169,-18,1044,350,-3710,-3360,199,-130,-391
20:57:37.602,,-170,-17,1045,350,-3850,-3360,198,-129,-384
20:57:37.621,,-171,-19,1047,0,-3850,-3500,202,-127,-397
20:57:37.640,,-170,-27,1044,-350,-3780,-3640,196,-130,-390
20:57:37.659,,-173,-42,1049,-1050,-3570,-3640,192,-129,-393
20:57:37.678,,-190,-73,1050,-2310,-2870,-3220,198,-123,-400
20:57:37.696,,-220,-106,1052,-3500,-1890,-2100,198,-121,-394
20:57:37.715,,-245,-144,1065,-4900,-770,-140,195,-129,-394
20:57:37.734,,-261,-193,1066,-7140,1120,2380,198,-127,-399
20:57:37.753,,-285,-249,1062,-10080,4130,6300,198,-118,-396
20:57:37.772,,-247,-391,979,-16100,5670,10990,210,-126,-399
20:57:37.790,,-276,-471,973,-23870,8120,17990,211,-124,-387
20:57:37.809,,-235,-653,896,-26600,6020,33320,214,-121,-388
20:57:37.828,,-221,-636,869,-23590,2380,53480,222,-108,-390
20:57:37.847,,-221,-607,884,-22890,-1680,76300,240,-117,-396
20:57:37.866,,-185,-598,885,-27090,-7490,97650,250,-111,-379
20:57:37.884,,-139,-581,929,-31150,-10780,116620,265,-109,-385
20:57:37.903,,-92,-545,959,-33670,-11830,135310,289,-102,-369
20:57:37.922,,-56,-468,1001,-39060,-10360,153230,304,-94,-381
20:57:37.941,,-19,-442,1007,-52150,-7280,167650,304,-94,-381
20:57:37.959,,18,-418,1035,-65380,-4270,179340,328,-82,-367
20:57:37.978,,19,-351,1082,-72450,-1610,190540,348,-72,-358
20:57:37.997,,50,-299,1118,-75880,-2240,200060,367,-54,-349
20:57:38.016,,88,-255,1134,-77770,-3920,206500,382,-40,-351
20:57:38.035,,140,-134,1180,-73780,-6440,210560,390,-18,-343
20:57:38.053,,165,-5,1242,-68600,-7560,211540,414,-1,-330
20:57:38.072,,190,86,1237,-66150,-8820,207270,426,10,-325
20:57:38.091,,221,140,1253,-66010,-8400,195300,445,39,-321
20:57:38.110,,237,198,1236,-66570,-5250,175840,453,48,-306
20:57:38.129,,223,227,1209,-65310,-1120,151760,466,64,-301
20:57:38.147,,193,212,1216,-60970,2730,124740,480,82,-295
20:57:38.166,,135,228,1222,-53060,5600,98210,480,81,-283
20:57:38.185,,78,210,1236,-40460,4830,75110,481,97,-274
20:57:38.204,,24,200,1256,-27090,2800,54110,478,103,-279
20:57:38.223,,-37,176,1268,-15330,350,36190,489,111,-279
20:57:38.241,,-82,131,1264,-4410,-2730,20790,490,118,-288
20:57:38.260,,-110,96,1227,7490,-5670,6930,483,115,-277
20:57:38.279,,-132,66,1165,17290,-6720,-6300,483,115,-279
20:57:38.298,,-157,71,1126,24290,-6580,-19880,477,106,-294
20:57:38.316,,-160,78,1114,28980,-7700,-33040,481,111,-282
20:57:38.335,,-123,76,1118,32550,-10080,-46620,484,100,-300
20:57:38.354,,-56,38,1166,40740,-11690,-60760,472,93,-294
20:57:38.373,,21,62,1171,57120,-11130,-76510,465,81,-304
20:57:38.392,,81,161,1135,72100,-7560,-95620,450,72,-318
20:57:38.410,,130,217,1103,74550,-2590,-118720,442,54,-322
20:57:38.429,,166,185,1089,66430,2800,-143150,439,40,-318
20:57:38.448,,162,118,1088,62090,6930,-163310,426,30,-334
20:57:38.467,,145,89,1090,64750,6790,-177940,414,7,-342
20:57:38.486,,119,86,1098,69230,3150,-187250,397,-3,-358
20:57:38.504,,95,53,1122,68670,-2730,-192570,384,-25,-360
20:57:38.523,,76,14,1131,62300,-8120,-195860,367,-31,-355
20:57:38.542,,38,-37,1110,52920,-11410,-196000,345,-51,-363
20:57:38.561,,19,-145,1124,49490,-15750,-193130,331,-66,-372
20:57:38.580,,0,-202,1140,53480,-18900,-187530,310,-75,-378
20:57:38.598,,13,-251,1146,59080,-20720,-182560,288,-93,-384
20:57:38.617,,32,-280,1146,59010,-19460,-178570,267,-108,-382
20:57:38.636,,32,-324,1132,50470,-14910,-172060,255,-115,-381
20:57:38.655,,1,-375,1101,32970,-7700,-162190,235,-121,-378
20:57:38.673,,-24,-459,1064,14560,-1260,-149100,220,-124,-388
20:57:38.692,,-59,-526,1010,4270,3360,-132160,213,-130,-390
20:57:38.711,,-95,-564,979,3150,5740,-113470,201,-133,-393
20:57:38.730,,-113,-586,969,8120,6580,-95690,201,-141,-397
20:57:38.749,,-161,-527,942,16380,7770,-77840,183,-130,-388
20:57:38.767,,-204,-435,918,20860,7980,-60900,177,-135,-394
20:57:38.786,,-237,-359,903,17990,7910,-46760,171,-133,-382
20:57:38.805,,-252,-320,896,9590,8820,-36400,166,-135,-388
20:57:38.824,,-270,-270,913,1960,11060,-28980,160,-130,-384
20:57:38.843,,-281,-243,928,-2730,12110,-22540,166,-126,-393
20:57:38.861,,-286,-211,927,-5670,11970,-17080,175,-124,-388
20:57:38.880,,-291,-183,921,-9100,11760,-12040,169,-129,-393
20:57:38.899,,-288,-159,935,-12600,10500,-7210,169,-127,-396
20:57:38.918,,-283,-148,969,-14350,8540,-2100,169,-133,-391
20:57:38.937,,-279,-133,993,-13020,6580,2310,169,-133,-391
20:57:38.955,,-271,-96,1011,-9870,5740,5180,169,-118,-391
20:57:38.974,,-269,-60,1027,-8050,6090,7000,183,-118,-399
20:57:38.993,,-266,-37,1050,-9100,6790,7980,172,-115,-400
20:57:39.012,,-258,-40,1070,-11480,7210,8680,172,-117,-405
20:57:39.030,,-258,-40,1070,-11480,7210,8680,187,-115,-405
20:57:39.049,,-258,-39,1075,-13790,7560,9730,180,-112,-408
20:57:39.068,,-248,-52,1083,-14560,7070,11200,186,-111,-406
20:57:39.087,,-239,-65,1093,-12180,6440,12670,183,-114,-405
20:57:39.106,,-233,-63,1088,-5670,6300,14280,193,-108,-402
20:57:39.124,,-236,-22,1085,910,6650,15610,201,-114,-396
20:57:39.143,,-228,10,1074,980,7000,15540,193,-111,-405
20:57:39.162,,-210,-3,1067,-4830,7630,14630,190,-114,-402
20:57:39.181,,-196,-60,1067,-7630,8260,13930,199,-111,-402
20:57:39.200,,-190,-76,1061,-3570,8890,14140,198,-102,-408
20:57:39.218,,-193,-67,1049,1750,9660,14980,196,-112,-411
20:57:39.237,,-198,-45,1046,4200,9940,15470,196,-111,-406
20:57:39.256,,-202,-43,1040,3150,9940,15330,187,-97,-408
20:57:39.275,,-214,-35,1042,2730,10080,14630,193,-99,-411
20:57:39.293,,-221,-26,1043,1610,9870,13370,196,-97,-412
20:57:39.312,,-225,-30,1040,-420,9660,11760,205,-90,-415
20:57:39.331,,-229,-53,1036,-1610,8960,10220,204,-91,-409
20:57:39.350,,-236,-62,1033,280,7700,9380,204,-93,-397
20:57:39.369,,-245,-57,1029,2660,6720,8890,205,-88,-408
20:57:39.387,,-255,-47,1027,3220,6020,8400,204,-85,-411
20:57:39.406,,-261,-44,1022,2170,5180,7840,204,-85,-414
20:57:39.425,,-257,-51,1015,1050,4340,6860,207,-91,-412
20:57:39.444,,-258,-58,1013,420,3780,5460,207,-97,-414
20:57:39.463,,-259,-61,1011,350,3290,3990,199,-85,-418
20:57:39.481,,-262,-65,1005,-350,2660,3150,207,-82,-409
20:57:39.500,,-265,-60,1004,-420,1540,3010,204,-87,-415
20:57:39.519,,-270,-57,1011,-350,490,3150,207,-88,-409
20:57:39.538,,-271,-45,1019,-490,-350,2800,205,-85,-412
20:57:39.557,,-277,-40,1024,-1190,-770,2100,207,-82,-409
20:57:39.575,,-274,-40,1027,-980,-1610,770,208,-82,-421
20:57:39.594,,-274,-38,1031,-770,-2030,-490,207,-85,-421
20:57:39.613,,-266,-46,1038,-770,-2450,-1190,205,-87,-409
20:57:39.632,,-267,-54,1046,-840,-2520,-1190,207,-88,-417
20:57:39.651,,-267,-55,1053,-210,-2660,-840,196,-79,-409
20:57:39.669,,-262,-54,1057,700,-2730,-420,199,-84,-412
20:57:39.688,,-256,-51,1057,1190,-2310,-210,202,-96,-409
20:57:39.707,,-250,-51,1052,910,-1260,-140,210,-87,-400
20:57:39.726,,-248,-55,1046,210,-70,-70,204,-85,-414
20:57:39.744,,-246,-58,1033,210,910,210,205,-84,-411
20:57:39.763,,-252,-51,1021,420,1610,700,204,-91,-417
20:57:39.782,,-256,-42,1010,0,1400,1330,196,-85,-411
20:57:39.801,,-263,-38,1009,-630,980,1610,202,-84,-414
20:57:39.820,,-266,-31,1010,280,-70,1540,202,-93,-417
20:57:39.838,,-262,-21,1015,1330,-840,770,207,-91,-415
20:57:39.857,,-267,-20,1015,840,-630,-140,201,-87,-415
20:57:39.876,,-267,-26,1020,0,-840,-770,202,-82,-411
20:57:39.895,,-270,-31,1023,-280,-840,-1050,204,-82,-408
20:57:39.914,,-269,-33,1024,0,-1190,-980,204,-82,-408
20:57:39.932,,-276,-34,1033,210,-1120,-840,204,-91,-409
20:57:39.951,,-281,-40,1033,770,-1400,-700,205,-85,-415
20:57:39.970,,-280,-33,1043,1750,-1400,-560,210,-85,-414
20:57:39.989,,-274,-31,1038,1750,-1050,-420,208,-82,-411
20:57:40.008,,-270,-38,1038,980,-350,0,202,-84,-415
20:57:40.026,,-272,-42,1034,910,490,420,198,-84,-415
20:57:40.045,,-271,-41,1029,1120,910,980,195,-82,-411
20:57:40.064,,-274,-38,1021,1190,1120,1400,201,-82,-411
20:57:40.083,,-276,-35,1015,1470,1050,1750,199,-79,-418
20:57:40.101,,-276,-26,1008,1820,840,1890,201,-78,-415
20:57:40.120,,-276,-23,1006,1330,630,1680,204,-87,-409
20:57:40.139,,-276,-23,1006,980,210,1400,207,-78,-414
20:57:40.158,,-279,-21,1004,840,-210,1400,196,-84,-418
20:57:40.177,,-277,-20,1005,910,-910,1260,204,-88,-403
20:57:40.195,,-277,-20,1009,630,-1330,840,204,-84,-411
20:57:40.214,,-273,-24,1010,490,-1750,420,201,-87,-411
20:57:40.233,,-272,-24,1014,560,-2100,350,195,-85,-417
20:57:40.252,,-268,-22,1018,420,-2310,420,201,-79,-415
20:57:40.271,,-269,-20,1021,-280,-2030,350,201,-85,-412
20:57:40.289,,-269,-22,1027,-910,-1680,420,195,-84,-409
20:57:40.308,,-271,-24,1031,-770,-1400,280,192,-91,-417
20:57:40.327,,-271,-19,1030,-70,-1400,280,199,-87,-412
20:57:40.346,,-269,-14,1031,-210,-1190,140,195,-87,-411
20:57:40.365,,-264,-18,1026,-980,-980,0,205,-84,-414
20:57:40.383,,-263,-23,1028,-1190,-840,0,204,-76,-411
20:57:40.402,,-262,-27,1027,-280,-1120,-70,208,-88,-415
20:57:40.421,,-262,-19,1018,560,-1330,-140,211,-91,-406
20:57:40.440,,-265,-17,1019,280,-1400,-140,202,-84,-412
20:57:40.459,,-263,-22,1021,-140,-1680,-140,196,-84,-405
20:57:40.477,,-264,-19,1026,-140,-1680,-350,199,-82,-408
20:57:40.496,,-261,-19,1025,140,-2100,-840,202,-84,-411
20:57:40.515,,-262,-20,1028,-70,-1960,-1190,193,-84,-418
20:57:40.534,,-262,-28,1030,-630,-1680,-1330,204,-90,-415
20:57:40.553,,-260,-32,1031,-700,-1470,-1260,201,-84,-412
20:57:40.571,,-260,-30,1033,-700,-1050,-840,198,-84,-412
20:57:40.590,,-261,-30,1031,-980,-630,-770,204,-93,-408
20:57:40.608,<gest7_left,,,,,,,,,
20:57:40.609,,-261,-32,1026,-840,-560,-700,202,-85,-417
20:57:40.628,,-264,-26,1024,-630,-350,-770,204,-90,-411
20:57:40.646,,-266,-31,1025,-980,-280,-840,201,-90,-414
20:57:40.665,,-268,-32,1026,-910,-420,-700,205,-87,-414
20:57:40.684,,-269,-28,1027,-420,-630,-490,199,-88,-418
20:57:40.703,,-268,-23,1030,-140,-910,-560,207,-78,-412
20:57:40.722,,-267,-23,1026,-350,-700,-910,201,-93,-417
20:57:40.740,,-270,-25,1026,-280,-630,-1120,205,-84,-411
20:57:40.759,,-273,-27,1030,-210,-560,-1190,208,-87,-421
20:57:40.778,,-271,-32,1031,70,-630,-1120,205,-91,-408
20:57:40.797,,-272,-31,1031,490,-560,-910,202,-84,-412
20:57:40.816,,-273,-31,1029,700,-560,-770,204,-85,-406
20:57:40.834,,-273,-30,1029,700,-560,-770,210,-88,-411
20:57:40.853,,-270,-29,1029,770,-560,-840,213,-87,-411
20:57:40.872,,-272,-30,1026,560,-280,-770,204,-88,-414
20:57:40.891,,-271,-33,1024,210,-210,-770,205,-87,-414
20:57:40.910,,-272,-34,1027,140,-140,-490,205,-87,-414
20:57:40.928,,-269,-32,1024,280,-210,-210,204,-84,-414
20:57:40.947,,-267,-27,1020,280,-70,-140,208,-84,-415
20:57:40.966,,-266,-25,1012,0,0,-280,202,-82,-417
20:57:40.985,,-268,-27,1009,-350,0,-420,205,-82,-415
20:57:41.003,,-269,-32,1012,-420,-420,-490,205,-85,-415
20:57:41.022,,-269,-32,1014,-280,-910,-560,207,-79,-408
20:57:41.041,,-264,-30,1014,-70,-1400,-420,207,-82,-409
20:57:41.060,,-263,-24,1017,-140,-1540,-350,208,-88,-412
20:57:41.079,,-266,-23,1020,-840,-1680,-420,207,-87,-414
20:57:41.097,,-268,-26,1024,-1260,-1820,-700,204,-85,-415
20:57:41.116,,-270,-26,1030,-1050,-1750,-910,199,-79,-423
20:57:41.135,,-269,-27,1032,-980,-1750,-1050,204,-84,-417
20:57:41.154,,-265,-28,1031,-1120,-1540,-1050,204,-88,-414
20:57:41.173,,-263,-28,1032,-1540,-1120,-840,208,-85,-417
20:57:41.191,,-264,-28,1029,-2380,-630,-700,202,-87,-411
20:57:41.210,,-266,-33,1027,-2660,-280,-700,199,-88,-412
20:57:41.229,,-269,-34,1023,-2240,-350,-700,199,-85,-415
20:57:41.248,,-269,-32,1023,-1260,-770,-560,205,-87,-414
20:57:41.267,,-264,-29,1022,-700,-1190,-490,204,-90,-415
20:57:41.285,,-262,-27,1022,-560,-1330,-490,204,-87,-411
20:57:41.304,,-262,-27,1028,-630,-1260,-490,211,-87,-409
20:57:41.323,,-267,-30,1029,-630,-1120,-560,205,-90,-405
20:57:41.342,,-268,-30,1027,-210,-1400,-630,207,-84,-412
20:57:41.361,,-267,-27,1026,0,-1400,-700,207,-88,-408
20:57:41.379,,-269,-29,1027,-70,-1330,-700,207,-82,-415
20:57:41.398,,-269,-28,1035,0,-1330,-560,205,-87,-408
20:57:41.417,,-266,-27,1032,0,-1260,-560,202,-88,-409
20:57:41.436,,-267,-25,1030,0,-1120,-700,208,-88,-409
20:57:41.455,,-267,-26,1028,-280,-910,-840,210,-91,-408
20:57:41.473,,-265,-29,1022,-560,-770,-1050,210,-84,-412
20:57:41.492,,-263,-29,1015,-560,-770,-1050,201,-87,-399
