Sensors' Acquisition [Hz]: Acc@52.0 Gyro@52.0 Mag@52.0 
hh:mm:ss.ms, Annotation , AccX [mg], AccY, AccZ, GyroX [mdps], GyroY, GyroZ, MagX [mgauss], MagY, MagZ
13:20:33.390,,-30,-133,1046,-350,-700,140,385,57,-91
13:20:33.409,,-26,-126,1047,0,-910,210,384,54,-96
13:20:33.428,,-25,-122,1043,-210,-980,210,384,55,-90
13:20:33.447,,-25,-122,1043,-210,-980,-70,387,55,-87
13:20:33.465,,-28,-121,1043,-350,-910,-70,388,51,-94
13:20:33.484,,-29,-124,1044,-420,-1050,-420,384,52,-96
13:20:33.503,,-31,-127,1042,-350,-1330,-700,384,51,-97
13:20:33.522,,-31,-128,1046,-210,-1470,-560,385,63,-99
13:20:33.541,,-30,-131,1053,-210,-1680,-420,393,51,-99
13:20:33.559,,-27,-130,1055,210,-1890,-630,384,54,-94
13:20:33.578,,-23,-126,1055,420,-1680,-560,382,54,-93
13:20:33.597,,-24,-129,1057,0,-1050,-350,384,49,-96
13:20:33.616,,-26,-131,1057,-210,-490,-210,379,58,-97
13:20:33.635,,-29,-128,1051,140,-210,-140,381,48,-102
13:20:33.653,,-30,-128,1051,280,-140,-140,385,55,-88
13:20:33.672,,-31,-126,1045,350,-280,70,391,60,-85
13:20:33.691,,-31,-122,1044,700,-490,140,390,55,-97
13:20:33.710,,-32,-122,1046,1050,-700,70,387,49,-93
13:20:33.729,,-32,-121,1044,1330,-1050,-210,384,54,-99
13:20:33.747,,-31,-121,1048,1330,-1190,-210,378,55,-93
13:20:33.766,,-27,-121,1050,840,-1050,-140,387,55,-96
13:20:33.785,,-28,-123,1049,490,-630,70,388,63,-97
13:20:33.804,,-30,-123,1047,70,-280,0,385,57,-99
13:20:33.823,,-35,-125,1043,70,-210,0,390,60,-94
13:20:33.841,,-36,-124,1044,350,-560,-70,381,55,-85
13:20:33.860,,-34,-125,1047,560,-910,0,385,55,-94
13:20:33.879,,-32,-124,1049,490,-1120,140,387,60,-90
13:20:33.898,,-31,-122,1047,210,-980,280,387,60,-90
13:20:33.917,,-32,-122,1046,-140,-770,490,387,60,-96
13:20:33.935,,-36,-123,1046,-350,-630,700,388,51,-94
13:20:33.954,,-34,-124,1045,-70,-840,770,391,57,-90
13:20:33.973,,-32,-122,1043,210,-1050,770,387,51,-91
13:20:33.992,,-30,-124,1043,-140,-1050,700,384,58,-97
13:20:34.010,,-29,-129,1043,-490,-980,770,382,55,-93
13:20:34.029,,-29,-129,1042,-560,-1120,980,384,54,-96
13:20:34.048,,-27,-129,1044,-560,-1260,1400,391,64,-97
13:20:34.067,,-25,-126,1043,-350,-1610,1680,388,60,-90
13:20:34.086,,-25,-119,1045,0,-1750,1680,384,63,-99
13:20:34.104,,-25,-116,1047,-140,-1680,1540,385,49,-93
13:20:34.123,,-26,-116,1051,-560,-1610,1260,400,60,-94
13:20:34.142,,-23,-117,1050,-630,-1610,980,388,67,-93
13:20:34.161,,-25,-113,1048,-630,-1330,840,376,60,-97
13:20:34.180,,-26,-118,1050,-840,-1120,700,378,58,-90
13:20:34.198,,-24,-121,1052,-280,-1330,350,385,54,-97
13:20:34.217,,-22,-117,1054,70,-1400,70,378,64,-97
13:20:34.236,,-20,-122,1054,-490,-1260,70,387,57,-90
13:20:34.255,,-21,-123,1056,-350,-840,210,388,63,-100
13:20:34.274,,-23,-118,1053,140,-560,70,385,61,-96
13:20:34.292,,-24,-116,1049,140,-280,-70,382,63,-102
13:20:34.311,,-24,-117,1049,70,-210,-280,387,60,-100
13:20:34.330,,-25,-116,1045,140,-210,-420,382,58,-99
13:20:34.349,,-25,-118,1045,210,-350,-630,382,57,-91
13:20:34.368,,-24,-119,1045,350,-630,-910,378,57,-99
13:20:34.386,,-24,-117,1041,350,-700,-910,387,64,-97
13:20:34.405,,-26,-116,1041,70,-560,-980,393,60,-96
13:20:34.424,,-27,-119,1040,-280,-560,-1050,378,63,-93
13:20:34.443,,-30,-119,1039,-420,-630,-1050,384,57,-93
13:20:34.462,,-30,-121,1041,-560,-910,-1050,375,69,-91
13:20:34.480,,-28,-120,1043,-350,-1190,-1120,384,63,-94
13:20:34.499,,-25,-117,1044,-490,-1190,-1260,381,64,-99
13:20:34.518,,-24,-122,1047,-1120,-840,-1190,391,54,-90
13:20:34.537,,-29,-124,1046,-1470,-630,-1120,384,60,-96
13:20:34.556,,-31,-121,1045,-1260,-770,-980,381,61,-96
13:20:34.574,,-33,-120,1046,-1050,-1190,-770,381,54,-96
13:20:34.593,,-32,-119,1049,-840,-1470,-840,379,57,-102
13:20:34.612,,-30,-121,1050,-840,-1680,-910,385,54,-91
13:20:34.631,,-27,-123,1051,-700,-1680,-980,390,54,-91
13:20:34.650,,-24,-124,1055,-560,-1400,-980,381,58,-94
13:20:34.668,,-24,-127,1053,-700,-980,-910,394,61,-100
13:20:34.687,,-23,-127,1049,-770,-770,-770,382,60,-97
13:20:34.706,,-25,-124,1050,-910,-560,-490,394,55,-97
13:20:34.725,,-27,-126,1045,-1120,-630,-350,379,52,-96
13:20:34.744,,-28,-121,1044,-630,-840,-350,376,54,-87
13:20:34.762,,-27,-118,1047,-490,-1050,-420,385,54,-91
13:20:34.781,,-25,-120,1048,-910,-1050,-490,379,54,-99
13:20:34.800,,-25,-122,1046,-1050,-1050,-630,388,55,-102
13:20:34.819,,-24,-122,1045,-1050,-1120,-770,385,55,-96
13:20:34.838,,-24,-126,1047,-910,-1260,-980,387,54,-87
13:20:34.856,,-22,-127,1049,-630,-1470,-980,390,64,-96
13:20:34.875,,-20,-126,1051,-630,-1330,-770,382,55,-91
13:20:34.894,,-22,-125,1056,-910,-980,-560,381,51,-90
13:20:34.913,,-23,-125,1053,-1050,-770,-560,381,51,-90
13:20:34.932,,-21,-122,1053,-700,-630,-630,375,58,-88
13:20:34.950,,-21,-120,1051,-700,-420,-700,384,60,-91
13:20:34.969,,-23,-122,1049,-910,-280,-700,382,58,-90
13:20:34.988,,-24,-127,1052,-700,-350,-840,387,61,-93
13:20:35.007,,-25,-126,1050,0,-770,-980,385,60,-85
13:20:35.026,,-23,-121,1044,280,-980,-910,385,54,-88
13:20:35.044,,-20,-121,1047,-210,-770,-770,388,61,-96
13:20:35.063,,-23,-123,1045,-770,-420,-840,387,63,-88
13:20:35.082,,-26,-122,1043,-770,-350,-980,393,60,-90
13:20:35.101,,-28,-125,1044,-840,-700,-1120,382,58,-96
13:20:35.120,,-26,-128,1047,-560,-1190,-1190,384,63,-91
13:20:35.138,,-24,-126,1048,-140,-1400,-1120,397,63,-90
13:20:35.157,,-24,-127,1052,-560,-1260,-840,382,60,-96
13:20:35.176,,-26,-129,1053,-630,-980,-560,388,61,-88
13:20:35.195,,-29,-125,1054,-420,-770,-490,387,55,-91
13:20:35.214,,-30,-127,1052,-490,-840,-490,387,61,-100
13:20:35.232,,-30,-128,1051,-280,-910,-490,387,48,-91
13:20:35.251,,-30,-128,1051,-280,-910,-490,384,54,-99
13:20:35.270,,-28,-129,1051,0,-980,-420,387,57,-91
13:20:35.289,,-24,-131,1051,0,-980,-210,387,52,-99
13:20:35.308,,-22,-127,1052,140,-770,-70,388,55,-88
13:20:35.326,,-21,-125,1050,-140,-420,140,378,58,-90
13:20:35.345,,-22,-124,1049,-420,0,210,379,52,-93
13:20:35.364,,-23,-121,1045,-630,70,70,379,51,-96
13:20:35.383,,-25,-122,1042,-560,-70,-140,378,58,-93
13:20:35.402,,-24,-122,1042,-280,-490,-350,384,54,-94
13:20:35.420,,-22,-124,1045,0,-910,-350,387,63,-94
13:20:35.439,,-22,-121,1047,70,-980,-280,390,58,-93
13:20:35.458,,-21,-123,1047,-210,-910,-350,388,57,-99
13:20:35.477,,-20,-125,1051,-70,-910,-630,385,49,-91
13:20:35.496,,-21,-123,1051,70,-840,-770,391,69,-91
13:20:35.514,,-22,-126,1049,-350,-700,-770,391,55,-91
13:20:35.533,,-23,-128,1048,-280,-420,-700,391,61,-88
13:20:35.552,,-24,-129,1051,-210,-210,-490,388,61,-103
13:20:35.571,,-24,-128,1049,-140,-140,-350,381,60,-94
13:20:35.590,,-24,-123,1047,-70,-140,-280,382,61,-93
13:20:35.608,,-21,-123,1049,-420,0,-140,387,60,-96
13:20:35.627,,-23,-122,1048,-630,350,-70,385,49,-93
13:20:35.646,,-25,-123,1047,-700,420,-210,385,54,-93
13:20:35.651,>gest5_cross_left,,,,,,,,,
13:20:35.665,,-28,-123,1045,-490,140,-350,384,60,-93
13:20:35.684,,-29,-120,1044,-210,-280,-350,385,57,-94
13:20:35.702,,-28,-120,1042,-280,-490,-420,384,64,-100
13:20:35.721,,-28,-123,1046,-490,-420,-420,384,60,-99
13:20:35.740,,-30,-127,1046,-490,-490,-490,381,61,-85
13:20:35.759,,-30,-128,1048,-350,-700,-490,385,66,-96
13:20:35.778,,-28,-127,1049,-280,-770,-420,384,54,-88
13:20:35.796,,-28,-128,1049,-770,-630,-210,396,60,-96
13:20:35.815,,-28,-128,1051,-1050,-420,70,388,63,-96
13:20:35.834,,-30,-129,1050,-910,-350,280,391,55,-100
13:20:35.853,,-32,-127,1050,-420,-350,420,382,61,-91
13:20:35.872,,-32,-128,1049,-210,-490,630,391,54,-99
13:20:35.890,,-30,-126,1047,0,-630,840,382,66,-102
13:20:35.909,,-28,-125,1043,-140,-770,840,384,57,-94
13:20:35.928,,-27,-127,1040,-140,-840,700,388,58,-90
13:20:35.947,,-27,-122,1041,210,-910,420,388,58,-90
13:20:35.966,,-28,-122,1039,-280,-1050,280,388,57,-99
13:20:35.984,,-26,-124,1036,-770,-1470,280,385,55,-96
13:20:36.003,,-24,-123,1037,-700,-1820,210,387,55,-90
13:20:36.022,,-23,-124,1038,-630,-2240,140,387,55,-97
13:20:36.041,,-23,-121,1039,-350,-2520,140,382,58,-96
13:20:36.060,,-22,-124,1044,-420,-2660,70,385,54,-93
13:20:36.078,,-22,-123,1044,-630,-2730,70,388,60,-93
13:20:36.097,,-22,-124,1040,-1190,-2870,0,385,64,-97
13:20:36.116,,-21,-130,1041,-1540,-3150,0,388,54,-88
13:20:36.135,,-21,-130,1042,-1470,-3500,140,382,55,-87
13:20:36.154,,-22,-129,1042,-1470,-3850,350,390,55,-88
13:20:36.172,,-23,-133,1041,-1540,-4340,630,385,67,-85
13:20:36.191,,-22,-133,1044,-1190,-4480,840,393,63,-90
13:20:36.210,,-21,-134,1049,-1400,-4410,1120,390,73,-97
13:20:36.229,,-20,-135,1052,-1750,-4410,1470,388,64,-82
13:20:36.248,,-21,-136,1059,-1750,-4410,1960,382,72,-87
13:20:36.266,,-25,-138,1071,-1470,-4340,2380,382,64,-93
13:20:36.285,,-28,-146,1063,-840,-5320,3010,384,60,-91
13:20:36.304,,-30,-146,1089,770,-6300,3570,384,63,-90
13:20:36.323,,-40,-154,1121,2380,-7210,5040,390,63,-91
13:20:36.342,,-56,-170,1161,4760,-8890,7140,385,72,-88
13:20:36.360,,-73,-174,1223,8330,-11550,10430,385,67,-97
13:20:36.379,,-74,-158,1342,7980,-13930,16940,384,60,-93
13:20:36.398,,-37,-206,1509,2800,-13790,28350,382,69,-91
13:20:36.417,,-3,-245,1684,2940,-9170,42910,385,70,-100
13:20:36.436,,29,-263,1818,8680,140,57540,382,76,-99
13:20:36.454,,60,-296,1859,16310,15680,67480,382,75,-93
13:20:36.473,,75,-307,1885,31080,38150,72170,373,87,-105
13:20:36.492,,78,-276,1890,53270,63210,73290,375,87,-105
13:20:36.511,,82,-212,1777,76650,87430,71260,367,97,-102
13:20:36.530,,75,-131,1614,94150,110250,67130,367,99,-118
13:20:36.548,,57,-83,1464,103600,131530,63070,360,114,-121
13:20:36.567,,35,-39,1322,106680,149170,59500,357,127,-130
13:20:36.586,,33,-27,1111,103530,162400,54950,354,138,-130
13:20:36.605,,11,-16,869,97580,172270,50260,348,144,-138
13:20:36.624,,-27,-27,625,90090,178010,45710,345,157,-132
13:20:36.642,,-79,-30,431,87920,176890,40880,346,171,-130
13:20:36.661,,-120,11,281,90650,166740,34090,333,169,-127
13:20:36.680,,-147,61,174,93240,146790,27720,327,183,-126
13:20:36.699,,-162,150,129,92890,120330,22400,324,187,-124
13:20:36.718,,-174,222,75,86520,89320,17850,319,195,-136
13:20:36.736,,-184,299,34,73920,58310,11620,324,201,-132
13:20:36.755,,-167,370,13,60340,30590,4550,310,196,-133
13:20:36.774,,-180,441,18,47320,9170,-4620,316,201,-138
13:20:36.793,,-237,487,20,31850,-7000,-15400,318,195,-138
13:20:36.812,,-303,498,55,14770,-22050,-25200,318,187,-136
13:20:36.830,,-310,485,105,-840,-38780,-35000,322,187,-141
13:20:36.849,,-307,469,160,-14210,-56700,-46690,321,175,-141
13:20:36.868,,-303,440,224,-23590,-74970,-58870,324,174,-151
13:20:36.887,,-270,442,268,-28630,-92820,-71400,333,160,-141
13:20:36.906,,-213,436,283,-34650,-108010,-83860,337,156,-153
13:20:36.924,,-154,402,290,-44310,-119560,-95410,348,135,-148
13:20:36.943,,-117,367,335,-58590,-128800,-106820,349,127,-154
13:20:36.962,,-123,321,448,-77140,-139300,-116970,352,106,-150
13:20:36.981,,-126,226,576,-92680,-154210,-126490,354,90,-144
13:20:36.999,,-88,134,714,-98560,-170590,-137830,354,90,-144
13:20:37.018,,-47,-6,862,-94360,-184450,-148470,370,72,-136
13:20:37.037,,-36,-152,1069,-76090,-196140,-156030,367,54,-136
13:20:37.056,,-36,-152,1069,-76090,-196140,-156030,376,31,-129
13:20:37.075,,-16,-194,1317,-40110,-206220,-158410,372,7,-130
13:20:37.093,,97,-123,1550,350,-210490,-150990,376,-4,-123
13:20:37.112,,290,-42,1752,9800,-199570,-136570,363,-25,-129
13:20:37.131,,430,-98,1946,-26320,-169120,-122010,369,-39,-115
13:20:37.150,,480,-388,1998,-68810,-125020,-106960,363,-48,-109
13:20:37.169,,442,-698,1998,-78120,-80710,-91490,366,-57,-100
13:20:37.187,,341,-806,1998,-50400,-44380,-73010,369,-55,-99
13:20:37.206,,218,-683,1998,-18130,-16030,-50050,364,-57,-99
13:20:37.225,,121,-539,1911,-3570,7070,-23730,363,-57,-99
13:20:37.244,,64,-425,1768,3430,24850,-1470,367,-67,-105
13:20:37.263,,12,-301,1667,14140,39060,11830,364,-58,-106
13:20:37.281,,-4,-209,1604,24990,51450,16660,357,-52,-102
13:20:37.300,,7,-196,1587,35280,63980,18480,364,-45,-115
13:20:37.319,,46,-196,1606,47530,77210,19320,364,-52,-130
13:20:37.338,,54,-142,1619,57120,91840,20580,366,-45,-121
13:20:37.357,,69,-106,1589,57610,107800,22960,372,-45,-139
13:20:37.375,,71,-99,1555,50190,126630,26110,364,-30,-145
13:20:37.394,,58,-126,1495,41230,146440,29610,363,-22,-156
13:20:37.413,,26,-140,1392,33530,164850,33740,367,-18,-162
13:20:37.432,,-21,-136,1245,27160,180600,38710,367,-9,-154
13:20:37.451,,-78,-114,1018,20720,193970,44310,366,6,-159
13:20:37.469,,-138,-102,772,9870,202580,49140,357,25,-174
13:20:37.488,,-209,-148,556,700,203000,54180,360,33,-166
13:20:37.507,,-267,-195,383,2870,192220,58240,366,52,-165
13:20:37.526,,-293,-209,284,17710,170380,59780,355,52,-168
13:20:37.545,,-320,-123,252,41440,141750,60200,355,73,-174
13:20:37.563,,-351,21,217,56630,112280,57890,358,79,-177
13:20:37.582,,-349,152,166,55370,84770,53760,352,90,-174
13:20:37.601,,-343,265,131,39340,61250,49910,343,96,-175
13:20:37.620,,-351,304,120,18760,41860,47250,348,96,-168
13:20:37.639,,-374,259,133,5390,25410,44520,346,99,-180
13:20:37.657,,-398,251,174,1260,12110,37590,348,109,-175
13:20:37.676,,-430,284,211,-2870,280,29400,346,111,-183
13:20:37.695,,-448,270,206,-12600,-12040,22820,340,117,-172
13:20:37.714,,-465,243,176,-25830,-23310,17570,348,111,-166
13:20:37.733,,-466,171,157,-41720,-34720,14420,352,114,-172
13:20:37.751,,-493,100,187,-58240,-48580,12460,348,103,-171
13:20:37.770,,-497,46,286,-69580,-67690,14910,346,99,-169
13:20:37.789,,-477,13,372,-75250,-88410,19460,358,97,-157
13:20:37.808,,-443,24,437,-81480,-106120,20090,354,97,-150
13:20:37.827,,-402,50,496,-90650,-119350,16940,364,97,-144
13:20:37.845,,-369,16,531,-100940,-128590,13860,363,94,-141
13:20:37.864,,-336,-20,675,-106190,-137830,13580,360,82,-139
13:20:37.883,,-264,-105,880,-104790,-146860,15820,369,76,-120
13:20:37.902,,-163,-197,1090,-96040,-153440,15050,378,69,-121
13:20:37.921,,-60,-216,1284,-80010,-154910,12810,375,73,-114
13:20:37.939,,26,-146,1465,-64610,-150220,11620,382,76,-109
13:20:37.958,,105,-58,1629,-56700,-138530,12460,382,64,-106
13:20:37.977,,151,39,1752,-58660,-119980,14070,379,67,-100
13:20:37.996,,152,83,1810,-67690,-97580,15610,379,72,-103
13:20:38.015,,130,42,1808,-75390,-75040,14840,385,69,-97
13:20:38.033,,109,-55,1756,-69580,-55230,10780,385,69,-97
13:20:38.052,,86,-86,1682,-49000,-39480,5670,390,78,-85
13:20:38.071,,60,-69,1581,-29190,-27580,1470,381,73,-90
13:20:38.090,,43,-70,1487,-18900,-18480,-630,385,76,-82
13:20:38.109,,29,-103,1386,-13580,-10500,-560,379,72,-87
13:20:38.127,,7,-124,1276,-8470,-3640,-420,388,81,-82
13:20:38.146,,-7,-136,1193,-3080,1680,-770,387,79,-82
13:20:38.165,,-20,-149,1126,910,5880,-1260,382,72,-85
13:20:38.184,,-31,-166,1060,3500,8610,-1330,388,76,-85
13:20:38.203,,-40,-173,1014,5110,9940,-770,390,75,-88
13:20:38.221,,-41,-179,984,5880,9030,420,385,79,-90
13:20:38.240,,-38,-175,967,7140,6930,1540,388,69,-90
13:20:38.259,,-35,-157,963,7280,5250,2030,385,81,-75
13:20:38.278,,-31,-151,974,5460,3850,1960,387,75,-88
13:20:38.297,,-27,-151,985,3010,2450,1330,388,67,-85
13:20:38.315,,-22,-150,999,1330,1330,490,387,66,-91
13:20:38.334,,-18,-145,1012,-140,700,-280,390,73,-87
13:20:38.353,,-14,-146,1025,-1050,280,-980,379,67,-91
13:20:38.372,,-18,-147,1033,-840,210,-1890,385,70,-90
13:20:38.391,,-27,-137,1045,0,420,-2660,390,70,-93
13:20:38.409,,-42,-135,1053,-630,210,-2590,379,73,-97
13:20:38.428,,-50,-141,1059,-1330,-630,-2590,388,70,-84
13:20:38.447,,-50,-141,1064,-700,-1190,-2800,382,63,-87
13:20:38.466,,-50,-141,1069,490,-1330,-3290,387,76,-85
13:20:38.485,,-47,-144,1065,1400,-1050,-3710,388,67,-88
13:20:38.503,,-51,-144,1064,1750,0,-3360,379,72,-87
13:20:38.522,,-54,-151,1059,1050,910,-2660,382,75,-82
13:20:38.541,,-58,-153,1062,910,1680,-1820,387,73,-91
13:20:38.560,,-60,-155,1051,1120,1750,-1260,381,67,-85
13:20:38.579,,-57,-148,1044,2520,1890,-980,382,79,-93
13:20:38.597,,-57,-138,1043,2450,2380,-630,384,76,-91
13:20:38.616,,-53,-147,1030,980,2380,-490,390,75,-85
13:20:38.635,,-57,-147,1035,980,2660,-210,385,67,-82
13:20:38.654,,-56,-144,1036,1400,2310,-280,387,75,-93
13:20:38.673,,-56,-141,1032,1190,2100,-350,379,66,-90
13:20:38.691,,-56,-141,1025,490,1680,-350,385,69,-85
13:20:38.710,,-54,-142,1027,-140,1330,-280,385,67,-90
13:20:38.729,,-54,-144,1032,-700,770,-280,387,72,-93
13:20:38.748,,-55,-145,1033,-770,-140,-420,390,66,-87
13:20:38.767,,-55,-143,1036,-420,-770,-350,388,75,-93
13:20:38.785,,-51,-143,1043,-350,-1260,-350,390,70,-84
13:20:38.804,,-47,-146,1044,-560,-1470,-350,379,75,-93
13:20:38.823,,-46,-147,1048,-210,-1330,-350,379,72,-87
13:20:38.842,,-49,-147,1052,-140,-980,-490,382,79,-84
13:20:38.861,,-49,-145,1052,-140,-980,-490,387,70,-93
13:20:38.879,,-51,-144,1048,-490,-560,-560,381,69,-93
13:20:38.898,,-53,-145,1045,-910,-140,-560,388,70,-88
13:20:38.917,,-53,-149,1045,-700,-210,-560,379,64,-90
13:20:38.936,,-52,-144,1043,-210,-280,-770,387,70,-94
13:20:38.955,,-49,-145,1042,0,-350,-840,372,75,-90
13:20:38.973,,-50,-138,1044,-280,70,-770,384,66,-94
13:20:38.992,,-53,-139,1035,-1400,280,-630,387,72,-82
13:20:39.011,,-53,-145,1035,-1470,280,-420,388,64,-85
13:20:39.030,,-56,-138,1038,-1050,210,-490,388,70,-88
13:20:39.049,,-55,-139,1035,-1330,-350,-700,387,75,-91
13:20:39.067,,-53,-143,1040,-1540,-840,-770,387,75,-91
13:20:39.086,,-47,-146,1039,-1400,-1330,-1050,385,73,-76
13:20:39.105,,-44,-142,1046,-490,-1330,-1120,381,70,-87
13:20:39.124,,-44,-138,1046,-770,-1050,-1190,384,76,-88
13:20:39.143,,-50,-141,1049,-1330,-700,-980,385,75,-88
13:20:39.161,,-52,-145,1052,-1330,-560,-1190,387,69,-85
13:20:39.180,,-52,-143,1049,-910,-700,-1470,393,72,-85
13:20:39.199,,-55,-137,1043,-910,-700,-1610,385,69,-90
13:20:39.218,,-56,-141,1038,-1330,-630,-1820,396,67,-82
13:20:39.237,,-55,-146,1040,-1050,-770,-2100,388,72,-78
13:20:39.255,,-58,-145,1044,-280,-980,-2310,391,69,-82
13:20:39.274,,-54,-145,1050,-210,-1260,-2380,385,73,-91
13:20:39.293,,-51,-147,1048,-560,-1260,-2380,382,72,-84
13:20:39.312,,-47,-151,1045,-700,-700,-2450,393,64,-84
13:20:39.331,,-49,-148,1044,-910,-70,-2310,384,70,-82
13:20:39.349,,-51,-152,1039,-1330,70,-2170,384,70,-85
13:20:39.368,,-54,-145,1042,-1120,70,-1960,379,69,-90
13:20:39.387,,-54,-142,1042,-1260,-280,-2100,390,72,-82
13:20:39.406,,-50,-142,1044,-910,-630,-2450,391,70,-88
13:20:39.425,,-50,-140,1048,140,-560,-2870,387,69,-97
13:20:39.443,,-53,-141,1050,770,-280,-3290,387,64,-94
13:20:39.462,,-56,-148,1043,630,-70,-3430,381,66,-97
13:20:39.481,,-56,-156,1049,420,0,-3220,388,63,-88
13:20:39.500,,-56,-164,1046,70,-350,-2870,384,70,-93
13:20:39.519,,-54,-170,1046,280,-840,-2310,385,72,-88
13:20:39.537,,-54,-168,1041,560,-1120,-1680,384,69,-90
13:20:39.556,,-54,-162,1042,420,-1050,-700,385,67,-91
13:20:39.575,,-55,-156,1044,-70,-770,280,385,70,-90
13:20:39.594,,-57,-147,1044,-420,-280,910,387,67,-87
13:20:39.613,,-58,-142,1041,-980,210,1120,378,73,-84
13:20:39.631,,-58,-140,1041,-1750,490,1050,375,69,-82
13:20:39.650,,-58,-143,1036,-2170,420,770,387,67,-91
13:20:39.669,,-54,-146,1038,-1470,70,280,388,67,-84
13:20:39.688,,-50,-146,1036,-490,-280,-210,381,66,-88
13:20:39.707,,-45,-149,1036,70,-630,-490,387,69,-90
13:20:39.725,,-44,-147,1043,70,-700,-420,387,73,-88
13:20:39.744,,-48,-147,1040,-210,-840,-210,384,69,-90
13:20:39.763,,-48,-143,1046,140,-980,-210,378,66,-93
13:20:39.782,,-49,-137,1043,140,-980,-490,387,73,-96
13:20:39.801,,-50,-138,1041,0,-770,-770,387,69,-90
13:20:39.819,,-52,-140,1039,-140,-350,-1120,384,72,-84
13:20:39.838,,-58,-141,1040,-350,-210,-1330,388,69,-90
13:20:39.857,,-59,-145,1037,-840,-420,-1330,385,67,-87
13:20:39.876,,-58,-152,1037,-1050,-770,-1190,387,70,-91
13:20:39.895,,-56,-149,1038,-770,-1260,-1120,393,67,-90
13:20:39.913,,-52,-146,1038,-700,-1400,-1050,387,63,-88
13:20:39.932,,-53,-145,1040,-980,-1190,-1050,387,64,-88
13:20:39.951,,-53,-150,1045,-1190,-980,-980,391,66,-85
13:20:39.970,,-54,-151,1046,-840,-1120,-840,384,61,-97
13:20:39.989,,-55,-147,1049,-560,-1260,-770,387,70,-91
13:20:40.007,,-51,-147,1047,-560,-1540,-770,382,63,-90
13:20:40.026,,-49,-144,1049,-140,-1260,-770,385,76,-87
13:20:40.045,,-48,-144,1045,-420,-910,-980,385,61,-90
13:20:40.064,,-51,-147,1040,-770,-420,-1050,385,69,-90
13:20:40.083,,-55,-151,1038,-1120,-350,-1050,379,69,-87
13:20:40.101,,-57,-151,1035,-1260,-770,-980,379,69,-87
13:20:40.120,,-56,-154,1036,-1050,-1470,-980,381,67,-91
13:20:40.139,,-53,-150,1041,-560,-1960,-910,382,67,-90
13:20:40.158,,-50,-147,1046,-350,-1960,-910,387,72,-97
13:20:40.177,,-48,-148,1049,-490,-1610,-1050,388,75,-94
13:20:40.195,,-51,-149,1049,-630,-1120,-980,379,70,-85
13:20:40.214,,-50,-149,1051,-770,-770,-980,382,69,-87
13:20:40.233,,-51,-153,1049,-980,-630,-980,379,70,-75
13:20:40.252,,-51,-153,1045,-840,-700,-840,387,64,-85
13:20:40.271,,-51,-152,1044,-630,-770,-840,391,67,-84
13:20:40.289,,-53,-152,1043,-840,-840,-770,387,69,-84
13:20:40.308,,-52,-154,1043,-840,-980,-700,394,70,-84
13:20:40.327,,-49,-151,1044,-910,-910,-560,390,61,-91
13:20:40.346,,-49,-152,1043,-1260,-770,-490,384,67,-87
13:20:40.365,,-52,-152,1044,-1400,-560,-350,384,72,-85
13:20:40.384,,-54,-153,1045,-1470,-630,-350,388,64,-85
13:20:40.402,,-53,-154,1041,-1330,-980,-350,376,72,-94
13:20:40.421,,-52,-154,1044,-700,-1190,-280,387,69,-84
13:20:40.440,,-50,-149,1047,-70,-1260,-420,387,69,-81
13:20:40.459,,-47,-147,1049,-140,-1050,-490,390,67,-91
13:20:40.478,,-45,-150,1051,-630,-840,-560,391,73,-87
13:20:40.496,,-45,-151,1051,-700,-490,-560,394,72,-85
13:20:40.515,,-49,-151,1047,-700,-210,-700,385,67,-87
13:20:40.534,,-50,-154,1042,-630,-210,-840,385,69,-97
13:20:40.553,,-50,-155,1042,-210,-210,-770,388,61,-87
13:20:40.572,,-50,-152,1040,-210,-280,-700,381,67,-93
13:20:40.590,,-50,-154,1040,-560,-350,-560,382,66,-90
13:20:40.609,,-51,-155,1039,-560,-490,-490,390,64,-90
13:20:40.628,,-53,-153,1039,-350,-770,-420,390,69,-96
13:20:40.647,,-53,-153,1039,-210,-1050,-490,388,70,-87
13:20:40.666,,-54,-153,1037,-210,-1050,-490,390,60,-82
13:20:40.684,,-52,-149,1038,-210,-1260,-560,381,61,-97
13:20:40.703,,-50,-149,1039,-350,-1120,-490,379,66,-90
13:20:40.722,,-51,-147,1044,-840,-910,-560,388,64,-87
13:20:40.741,,-52,-150,1044,-1190,-840,-560,379,67,-84
13:20:40.760,,-54,-154,1043,-1050,-980,-770,382,73,-93
13:20:40.778,,-53,-154,1046,-210,-1190,-1050,387,67,-90
13:20:40.797,,-50,-155,1048,280,-1470,-1190,384,72,-87
13:20:40.816,,-50,-155,1051,140,-1540,-840,378,61,-88
13:20:40.835,,-51,-155,1052,-280,-1260,-280,378,76,-90
13:20:40.854,,-53,-153,1054,0,-1190,70,388,66,-87
13:20:40.872,,-53,-147,1051,630,-1050,-70,390,78,-85
13:20:40.891,,-50,-145,1049,840,-910,-420,385,72,-82
13:20:40.910,,-48,-149,1044,280,-490,-630,396,75,-81
13:20:40.929,,-47,-154,1040,-280,0,-630,387,73,-81
13:20:40.948,,-48,-160,1040,-420,210,-420,387,73,-90
13:20:40.966,,-48,-157,1038,70,-70,-210,387,75,-82
13:20:40.985,,-49,-150,1035,0,-280,-140,382,73,-87
13:20:41.004,,-50,-150,1036,-630,-630,0,385,73,-82
13:20:41.023,,-50,-151,1039,-770,-840,70,393,67,-85
13:20:41.042,,-49,-146,1042,-630,-980,-70,384,64,-90
13:20:41.060,,-48,-146,1045,-840,-910,-350,385,66,-87
13:20:41.079,,-46,-153,1047,-840,-910,-630,393,61,-82
13:20:41.098,,-44,-153,1050,-280,-910,-910,393,69,-85
13:20:41.117,,-45,-151,1050,0,-770,-840,390,63,-88
13:20:41.136,,-47,-153,1050,-280,-560,-700,390,63,-88
13:20:41.154,,-49,-151,1048,-350,-350,-630,384,72,-93
13:20:41.173,,-48,-153,1046,-420,-210,-560,387,66,-88
13:20:41.192,,-47,-151,1046,-140,-70,-560,384,70,-87
13:20:41.211,,-46,-150,1044,-140,0,-630,387,67,-91
13:20:41.230,,-50,-149,1035,-350,0,-630,385,63,-88
13:20:41.248,,-51,-151,1037,-490,-210,-630,390,67,-90
13:20:41.267,,-51,-152,1039,-630,-490,-630,385,69,-87
13:20:41.286,,-51,-149,1041,-490,-770,-560,381,61,-93
13:20:41.305,,-51,-148,1044,-490,-840,-630,388,67,-85
13:20:41.324,,-55,-149,1043,-630,-910,-840,384,69,-96
13:20:41.342,,-56,-150,1044,-350,-1050,-1050,385,64,-90
13:20:41.361,,-53,-150,1049,-140,-1190,-1120,382,70,-88
13:20:41.380,,-50,-154,1051,-70,-1050,-1120,385,72,-90
13:20:41.399,,-49,-155,1055,0,-630,-1050,376,69,-91
13:20:41.418,,-51,-154,1055,-70,-70,-910,387,70,-93
13:20:41.436,,-54,-153,1049,-630,140,-770,387,67,-79
13:20:41.455,,-55,-153,1047,-700,280,-490,387,66,-85
13:20:41.474,,-56,-149,1046,-420,210,-350,387,67,-84
13:20:41.493,,-53,-147,1042,-350,280,-350,391,73,-82
13:20:41.512,,-56,-151,1042,-350,420,-420,387,72,-85
13:20:41.530,,-55,-155,1042,-140,210,-630,379,61,-81
13:20:41.549,,-56,-153,1034,0,70,-630,387,70,-79
13:20:41.568,,-53,-157,1041,-420,-210,-490,393,63,-87
13:20:41.587,,-50,-158,1041,-630,-490,-350,390,64,-82
13:20:41.606,,-50,-151,1034,-420,-490,-210,388,66,-82
13:20:41.624,,-52,-150,1041,-770,-420,-70,387,63,-79
13:20:41.643,,-51,-154,1043,-1050,-560,-70,387,67,-87
13:20:41.662,,-52,-146,1042,-490,-630,-210,390,66,-90
13:20:41.681,,-52,-144,1044,-560,-560,-420,388,69,-93
13:20:41.700,,-52,-152,1040,-770,-700,-840,387,67,-93
13:20:41.718,,-52,-151,1045,-210,-1050,-1120,384,67,-88
13:20:41.737,,-52,-153,1048,-280,-1470,-1120,385,60,-85
13:20:41.756,,-50,-155,1053,-140,-1750,-910,382,67,-84
13:20:41.775,,-48,-151,1056,210,-1470,-770,379,67,-84
13:20:41.794,,-46,-153,1053,0,-840,-770,387,72,-87
13:20:41.812,,-48,-155,1051,-70,140,-770,381,58,-84
13:20:41.831,,-52,-157,1047,-280,700,-700,390,72,-85
13:20:41.850,,-55,-157,1038,-140,560,-490,385,66,-88
13:20:41.869,,-55,-154,1038,70,350,-350,388,70,-87
13:20:41.888,,-54,-154,1033,70,-70,-280,384,70,-87
13:20:41.906,,-55,-149,1033,140,-210,-70,385,64,-87
13:20:41.925,,-55,-148,1035,-140,-280,-210,388,63,-84
13:20:41.944,,-56,-149,1035,-140,-560,-420,387,67,-87
13:20:41.963,,-57,-147,1038,0,-840,-700,381,70,-88
13:20:41.982,,-54,-149,1042,-210,-1120,-700,382,66,-84
13:20:42.000,,-52,-153,1048,-350,-1120,-560,387,70,-90
13:20:42.019,,-52,-150,1053,-350,-910,-630,387,66,-84
13:20:42.038,,-54,-150,1051,-700,-420,-630,387,70,-87
13:20:42.057,,-55,-153,1052,-770,-140,-560,387,75,-85
13:20:42.076,,-56,-149,1050,-280,-70,-560,391,66,-78
13:20:42.093,<gest5_cross_left,,,,,,,,,
13:20:42.094,,-57,-147,1044,-280,0,-420,385,64,-79
13:20:42.113,,-55,-150,1043,-420,0,-350,397,64,-85
13:20:42.132,,-56,-149,1042,-70,0,-420,387,69,-84
13:20:42.151,,-55,-149,1039,70,-140,-700,387,69,-84
13:20:42.170,,-57,-149,1038,-140,-280,-840,385,67,-88
13:20:42.188,,-54,-153,1038,-630,-420,-840,385,66,-85
13:20:42.207,,-55,-152,1039,-910,-420,-700,387,73,-87
13:20:42.226,,-56,-153,1038,-1330,-560,-560,387,69,-85
13:20:42.245,,-56,-153,1040,-1330,-840,-560,388,70,-90
13:20:42.264,,-53,-152,1040,-1190,-1050,-490,388,70,-93
13:20:42.282,,-55,-149,1041,-1190,-840,-490,385,67,-90
13:20:42.301,,-60,-147,1042,-1330,-700,-490,387,66,-87
13:20:42.320,,-60,-153,1044,-1330,-980,-700,396,70,-76
13:20:42.339,,-56,-157,1048,-840,-1540,-1050,393,67,-87
13:20:42.358,,-52,-157,1048,-210,-1680,-1120,385,64,-81
13:20:42.376,,-48,-160,1053,0,-1400,-910,388,63,-82
13:20:42.395,,-50,-161,1054,210,-840,-700,385,64,-88
13:20:42.414,,-52,-155,1050,700,-280,-630,382,63,-90
13:20:42.433,,-54,-151,1045,560,0,-420,387,69,-81
13:20:42.452,,-54,-151,1045,560,0,-420,388,61,-90
13:20:42.470,,-56,-152,1042,0,0,-280,388,64,-91
13:20:42.489,,-56,-153,1038,70,-280,-350,384,63,-94
13:20:42.508,,-53,-150,1036,420,-490,-560,391,64,-93
13:20:42.527,,-56,-149,1035,140,-560,-560,382,70,-84
13:20:42.546,,-56,-153,1034,-350,-630,-490,381,66,-87
13:20:42.564,,-56,-154,1035,-420,-630,-560,385,63,-88
13:20:42.583,,-56,-155,1036,-420,-840,-770,385,73,-87
13:20:42.602,,-55,-157,1035,-630,-1120,-770,385,61,-90
13:20:42.621,,-54,-155,1039,-770,-1260,-630,390,70,-85
13:20:42.640,,-54,-152,1042,-910,-1400,-490,379,72,-87
13:20:42.658,,-54,-151,1042,-910,-1470,-490,385,69,-90
13:20:42.677,,-53,-150,1042,-840,-1470,-490,385,67,-90
13:20:42.696,,-55,-150,1044,-1190,-1330,-490,388,67,-82
13:20:42.715,,-56,-152,1046,-1400,-1330,-350,384,69,-85
13:20:42.734,,-55,-150,1045,-1120,-1400,-490,385,61,-93
13:20:42.752,,-55,-151,1045,-1120,-1330,-630,384,63,-82
13:20:42.771,,-55,-154,1044,-910,-1400,-770,387,73,-93
13:20:42.790,,-54,-154,1044,-490,-1330,-630,387,70,-88
13:20:42.809,,-53,-156,1047,-700,-1260,-490,384,63,-87
13:20:42.828,,-51,-161,1045,-910,-1190,-350,391,70,-91
13:20:42.846,,-48,-156,1046,-630,-1190,-280,384,69,-85
13:20:42.865,,-50,-153,1042,-840,-1050,-280,390,66,-82
13:20:42.884,,-52,-151,1041,-1260,-910,-210,393,66,-88
13:20:42.903,,-54,-148,1044,-1260,-840,-140,385,63,-85
13:20:42.922,,-56,-147,1042,-1330,-980,-210,391,64,-85
13:20:42.940,,-55,-152,1042,-1190,-1120,-420,381,64,-88
13:20:42.959,,-49,-158,1046,-560,-1540,-840,385,69,-94
13:20:42.978,,-47,-157,1050,-140,-1540,-910,381,66,-87
13:20:42.997,,-45,-161,1051,-630,-1330,-630,382,66,-84
13:20:43.016,,-47,-164,1052,-980,-840,-280,384,67,-91
13:20:43.034,,-47,-159,1050,-840,-490,-70,393,67,-85
13:20:43.053,,-49,-154,1044,-840,0,0,378,70,-88
13:20:43.072,,-49,-153,1043,-1120,280,0,379,73,-87
13:20:43.091,,-52,-152,1040,-1260,420,-70,390,66,-88
13:20:43.110,,-54,-154,1037,-1330,280,-280,382,66,-84
13:20:43.128,,-53,-154,1037,-1470,-70,-420,390,63,-91
