Sensors' Acquisition [Hz]: Acc@52.0 Gyro@52.0 Mag@52.0 
hh:mm:ss.ms, Annotation , AccX [mg], AccY, AccZ, GyroX [mdps], GyroY, GyroZ, MagX [mgauss], MagY, MagZ
18:49:07.435,,-248,-125,1023,-4550,840,-3080,-126,177,-460
18:49:07.454,,-250,-139,1010,-4760,1540,-3150,-126,178,-448
18:49:07.473,,-255,-148,1006,-4550,910,-2590,-130,171,-456
18:49:07.492,,-263,-146,1005,-4270,-560,-2030,-123,174,-454
18:49:07.511,,-267,-138,1012,-3710,-2310,-1330,-124,171,-459
18:49:07.529,,-271,-122,1023,-3010,-3640,-700,-118,172,-453
18:49:07.548,,-278,-106,1039,-2870,-4550,-560,-123,171,-450
18:49:07.567,,-282,-96,1051,-2520,-5110,-770,-130,168,-447
18:49:07.586,,-284,-90,1060,-1260,-5040,-1120,-115,168,-445
18:49:07.605,,-280,-85,1070,-350,-4620,-1610,-121,168,-447
18:49:07.623,,-273,-85,1070,140,-3640,-1960,-126,169,-448
18:49:07.642,,-265,-91,1070,280,-2450,-2450,-123,172,-457
18:49:07.661,,-260,-95,1071,1190,-1680,-2800,-124,172,-456
18:49:07.680,,-256,-99,1069,2870,-1260,-2730,-126,177,-450
18:49:07.699,,-250,-101,1068,4900,-1050,-2100,-127,172,-459
18:49:07.717,,-246,-98,1061,6930,-350,-1820,-132,171,-453
18:49:07.736,,-244,-91,1052,7910,980,-1960,-123,171,-451
18:49:07.755,,-241,-92,1040,7560,2660,-2450,-132,174,-451
18:49:07.774,,-239,-98,1026,6370,4340,-3360,-132,177,-448
18:49:07.792,,-246,-104,1012,5180,5530,-4340,-130,172,-441
18:49:07.811,,-253,-115,1003,3920,5740,-4970,-126,166,-450
18:49:07.830,,-257,-127,992,2940,5040,-5040,-130,177,-444
18:49:07.849,,-261,-131,986,2240,4060,-4760,-132,174,-447
18:49:07.868,,-266,-137,989,1120,3010,-3920,-132,181,-448
18:49:07.886,,-272,-142,989,-70,1610,-3010,-132,178,-456
18:49:07.905,,-278,-141,993,-560,350,-1890,-132,177,-453
18:49:07.924,,-280,-132,999,-1050,-980,-700,-135,178,-457
18:49:07.943,,-278,-122,1009,-1400,-1890,700,-127,177,-450
18:49:07.962,,-272,-108,1020,-1610,-2170,1820,-133,175,-454
18:49:07.980,,-264,-99,1030,-2240,-1750,2450,-133,180,-453
18:49:07.999,,-259,-94,1042,-2940,-980,2660,-133,180,-453
18:49:08.018,,-253,-91,1046,-2870,-70,2870,-133,181,-456
18:49:08.037,,-246,-80,1049,-1820,980,3080,-130,169,-457
18:49:08.056,,-242,-71,1044,-630,2240,3080,-129,174,-444
18:49:08.074,,-238,-61,1034,630,3570,2730,-144,174,-445
18:49:08.093,,-235,-58,1022,1540,5110,2030,-135,175,-453
18:49:08.112,,-237,-64,1009,1470,6300,840,-126,181,-456
18:49:08.131,,-243,-73,999,1260,6720,-560,-132,181,-460
18:49:08.149,,-249,-84,985,1820,6440,-1960,-135,184,-460
18:49:08.168,,-252,-87,971,2870,5880,-2870,-136,180,-451
18:49:08.187,,-255,-88,960,3220,5600,-3500,-130,181,-453
18:49:08.206,,-263,-90,947,2590,5460,-4060,-138,177,-456
18:49:08.225,,-273,-101,941,1610,5180,-4760,-127,186,-445
18:49:08.243,,-283,-111,932,350,4480,-5320,-130,181,-448
18:49:08.262,,-291,-126,932,-910,3150,-5390,-132,177,-450
18:49:08.281,,-293,-138,939,-1960,1120,-4900,-136,186,-456
18:49:08.300,,-295,-136,949,-2310,-1120,-3710,-139,189,-460
18:49:08.319,,-293,-130,967,-2590,-3150,-2100,-123,181,-463
18:49:08.337,,-285,-118,986,-3150,-4620,-1050,-135,180,-457
18:49:08.356,,-283,-107,1001,-3710,-5460,-490,-138,187,-459
18:49:08.375,,-277,-100,1021,-4060,-5740,-560,-133,193,-460
18:49:08.394,,-272,-94,1036,-3710,-5600,-980,-133,187,-459
18:49:08.413,,-264,-89,1042,-2800,-4760,-1330,-129,180,-459
18:49:08.431,,-259,-86,1042,-2240,-3150,-1540,-139,180,-457
18:49:08.450,,-260,-90,1039,-1890,-1120,-1750,-129,181,-456
18:49:08.469,,-265,-96,1034,-1400,630,-2240,-127,177,-448
18:49:08.488,,-266,-109,1019,-980,1750,-2730,-135,181,-457
18:49:08.507,,-269,-117,1010,-350,2310,-2520,-126,177,-453
18:49:08.525,,-275,-120,1002,-210,2450,-1750,-126,183,-450
18:49:08.544,,-278,-117,995,280,2100,-630,-127,187,-456
18:49:08.563,,-280,-104,993,1330,1750,70,-145,184,-460
18:49:08.582,,-278,-94,990,1890,1610,70,-138,190,-454
18:49:08.601,,-280,-89,981,1610,1820,-210,-133,183,-453
18:49:08.619,,-279,-91,977,910,1960,-630,-130,187,-469
18:49:08.638,,-277,-96,977,210,1680,-1120,-139,187,-462
18:49:08.657,,-272,-102,977,-280,1120,-1750,-139,187,-457
18:49:08.676,,-272,-107,982,-980,560,-2170,-130,190,-459
18:49:08.694,,-273,-110,990,-2170,-280,-2310,-127,183,-457
18:49:08.713,,-271,-111,1000,-2870,-1400,-2240,-141,195,-444
18:49:08.732,,-270,-104,1014,-2800,-2590,-2310,-142,183,-447
18:49:08.751,,-269,-99,1028,-2100,-3570,-2450,-130,187,-453
18:49:08.759,>gest7_left,,,,,,,,,
18:49:08.770,,-269,-90,1036,-1470,-4060,-2940,-136,178,-453
18:49:08.788,,-267,-83,1042,-910,-3780,-3640,-135,189,-453
18:49:08.807,,-267,-83,1044,-700,-2940,-4760,-126,186,-454
18:49:08.826,,-267,-93,1044,-630,-2100,-5880,-138,184,-454
18:49:08.845,,-268,-103,1037,-140,-1470,-6930,-147,186,-460
18:49:08.864,,-270,-107,1028,1050,-1050,-7420,-136,190,-453
18:49:08.882,,-275,-106,1014,2240,-560,-7420,-144,190,-454
18:49:08.901,,-278,-102,1005,2870,0,-7280,-136,189,-460
18:49:08.920,,-278,-100,996,3010,420,-7350,-147,192,-459
18:49:08.939,,-275,-98,988,3080,770,-7770,-139,192,-457
18:49:08.958,,-274,-97,982,2730,980,-8260,-136,192,-460
18:49:08.976,,-275,-91,979,1820,420,-8890,-136,192,-460
18:49:08.995,,-274,-94,978,560,-980,-9590,-142,195,-451
18:49:09.014,,-271,-100,986,-280,-3080,-10500,-145,190,-459
18:49:09.033,,-265,-107,997,70,-5530,-11060,-135,189,-448
18:49:09.051,,-259,-109,1012,560,-7560,-10990,-144,189,-448
18:49:09.070,,-253,-108,1028,1120,-8540,-10430,-139,186,-444
18:49:09.089,,-251,-102,1037,1540,-8260,-10080,-135,184,-450
18:49:09.108,,-252,-102,1041,1260,-7070,-10220,-144,187,-442
18:49:09.127,,-249,-104,1044,700,-5460,-10990,-141,181,-444
18:49:09.145,,-248,-116,1040,280,-3850,-11480,-150,192,-445
18:49:09.164,,-250,-127,1033,0,-2590,-11410,-142,183,-444
18:49:09.183,,-250,-127,1033,-210,-1960,-10710,-145,186,-447
18:49:09.202,,-252,-133,1026,-210,-1960,-10710,-135,196,-448
18:49:09.221,,-258,-139,1020,-210,-1400,-9940,-153,196,-447
18:49:09.239,,-266,-146,1016,280,-1330,-9240,-148,195,-442
18:49:09.258,,-269,-154,1018,280,-1820,-8890,-145,187,-441
18:49:09.277,,-269,-163,1019,420,-2100,-8190,-150,184,-456
18:49:09.296,,-270,-166,1020,490,-1820,-7280,-150,190,-447
18:49:09.314,,-271,-174,1019,0,-1330,-6090,-148,189,-444
18:49:09.333,,-274,-175,1013,-140,-490,-4690,-148,190,-451
18:49:09.352,,-282,-174,1006,-560,280,-2730,-153,186,-447
18:49:09.371,,-283,-172,1006,-560,840,-560,-154,195,-454
18:49:09.390,,-286,-163,1001,-420,980,1330,-154,193,-453
18:49:09.408,,-295,-145,1001,-280,770,2800,-145,189,-451
18:49:09.427,,-311,-141,991,-1470,210,3780,-148,189,-442
18:49:09.446,,-344,-157,984,-3290,-560,4340,-153,192,-438
18:49:09.465,,-380,-203,987,-5600,-1960,4410,-147,192,-456
18:49:09.484,,-421,-284,964,-9870,-3010,4480,-157,190,-448
18:49:09.502,,-470,-424,952,-16940,-3010,7350,-148,184,-453
18:49:09.521,,-457,-593,980,-24640,-3640,15260,-142,186,-457
18:49:09.540,,-394,-769,1038,-25620,-4550,30730,-130,186,-457
18:49:09.559,,-348,-971,996,-25200,-3500,53060,-127,177,-454
18:49:09.578,,-314,-1045,912,-23240,-3920,83370,-112,163,-453
18:49:09.596,,-255,-1055,930,-15820,-7980,121940,-91,163,-457
18:49:09.615,,-162,-946,944,-7070,-15820,161280,-90,144,-453
18:49:09.634,,-80,-772,961,1050,-23380,196560,-84,138,-447
18:49:09.653,,-23,-538,985,11550,-30660,227220,-63,127,-448
18:49:09.672,,53,-331,1007,18690,-35770,249200,-43,115,-444
18:49:09.690,,142,-108,995,18830,-37870,259700,-30,103,-447
18:49:09.709,,215,80,971,11830,-35910,258720,-4,102,-442
18:49:09.728,,261,257,981,2170,-31640,249620,9,99,-439
18:49:09.747,,269,365,999,-7070,-25620,237300,36,85,-439
18:49:09.765,,297,446,1038,-14000,-21840,220570,49,93,-427
18:49:09.784,,306,506,1063,-18970,-19320,199640,73,87,-438
18:49:09.803,,289,562,1068,-21420,-17290,175070,91,87,-429
18:49:09.822,,294,584,1130,-21840,-17080,147420,105,81,-439
18:49:09.841,,257,564,1139,-18550,-15610,117110,117,94,-442
18:49:09.859,,201,495,1111,-13020,-13020,86450,118,87,-438
18:49:09.878,,141,398,1074,-7630,-10010,58170,123,88,-430
18:49:09.897,,75,301,1060,-3500,-6720,34790,127,82,-417
18:49:09.916,,31,213,1069,-2030,-4550,16870,132,91,-430
18:49:09.935,,42,155,1110,1680,-4550,4830,123,93,-426
18:49:09.953,,86,167,1130,8960,-4270,-4130,124,82,-424
18:49:09.972,,177,235,1176,17290,-2940,-15610,124,82,-424
18:49:09.991,,238,334,1168,25760,2100,-32410,117,87,-429
18:49:10.010,,270,423,1102,30240,9800,-54810,111,88,-426
18:49:10.028,,245,470,1037,28420,18760,-79520,91,87,-433
18:49:10.047,,230,427,985,23100,24010,-105210,78,84,-432
18:49:10.066,,240,333,1014,23870,23100,-130690,67,87,-432
18:49:10.085,,269,276,1072,36540,17640,-154280,52,91,-439
18:49:10.104,,249,291,1073,49630,13300,-174860,37,94,-442
18:49:10.122,,156,327,1002,47460,12950,-191800,7,96,-444
18:49:10.141,,97,232,954,27510,15400,-206570,-15,106,-448
18:49:10.160,,78,63,959,8050,19670,-219100,-28,108,-441
18:49:10.179,,52,-95,960,280,24150,-227290,-31,118,-436
18:49:10.198,,-25,-183,974,-280,27580,-228130,-70,123,-454
18:49:10.216,,-105,-303,978,-4200,28210,-222880,-84,144,-454
18:49:10.235,,-181,-414,934,-8890,26040,-212940,-99,144,-442
18:49:10.254,,-253,-530,880,-8890,22890,-195440,-115,160,-447
18:49:10.273,,-296,-599,882,-5390,19180,-171920,-126,166,-454
18:49:10.292,,-331,-642,913,-4480,16030,-146510,-130,180,-457
18:49:10.310,,-349,-656,939,-7910,14630,-123410,-132,187,-453
18:49:10.329,,-363,-643,928,-11970,15260,-101780,-132,199,-457
18:49:10.348,,-392,-627,900,-11900,17360,-80290,-147,201,-453
18:49:10.367,,-441,-574,869,-11410,19320,-61740,-133,207,-456
18:49:10.385,,-475,-516,836,-13720,19530,-46970,-138,213,-460
18:49:10.404,,-503,-469,816,-14560,18200,-34090,-144,217,-465
18:49:10.423,,-519,-412,831,-13020,14560,-22330,-142,223,-469
18:49:10.442,,-506,-351,859,-10640,9170,-11550,-139,225,-469
18:49:10.461,,-492,-291,876,-8680,3780,-2940,-129,228,-463
18:49:10.479,,-465,-241,906,-7140,-560,2660,-139,220,-469
18:49:10.498,,-438,-217,930,-7070,-2800,5320,-139,223,-471
18:49:10.517,,-412,-197,948,-7630,-3360,5740,-130,226,-466
18:49:10.536,,-380,-191,974,-7980,-3500,6230,-136,222,-465
18:49:10.555,,-355,-189,1000,-8960,-3500,7210,-133,219,-474
18:49:10.573,,-334,-190,1016,-9870,-4130,8540,-130,216,-462
18:49:10.592,,-321,-184,1029,-9520,-5110,9660,-129,217,-468
18:49:10.611,,-313,-169,1039,-8260,-6090,10220,-124,214,-465
18:49:10.630,,-300,-164,1043,-6720,-6790,10290,-133,214,-471
18:49:10.649,,-290,-148,1053,-4690,-7070,10430,-124,216,-471
18:49:10.667,,-287,-140,1049,-2870,-6930,10920,-124,208,-468
18:49:10.686,,-284,-135,1043,-1120,-6580,11340,-127,219,-474
18:49:10.705,,-283,-123,1042,1050,-6020,11480,-123,213,-471
18:49:10.724,,-281,-106,1037,1680,-4970,11340,-114,211,-468
18:49:10.742,,-278,-98,1028,630,-3920,11130,-121,208,-471
18:49:10.761,,-278,-91,1021,280,-2590,10290,-120,208,-469
18:49:10.780,,-277,-81,1016,980,-980,8820,-124,204,-474
18:49:10.799,,-279,-68,1006,1400,560,6650,-129,199,-472
18:49:10.818,,-284,-66,999,1470,2240,4060,-130,205,-463
18:49:10.836,,-299,-73,982,840,3710,560,-118,198,-460
18:49:10.855,,-306,-103,972,350,3990,-2870,-115,205,-463
18:49:10.874,,-309,-130,961,630,3150,-5390,-115,201,-456
18:49:10.893,,-310,-163,956,980,1680,-6440,-124,208,-466
18:49:10.912,,-310,-185,954,1330,-280,-6300,-130,205,-469
18:49:10.930,,-304,-191,959,1820,-1820,-4830,-121,205,-453
18:49:10.949,,-302,-187,963,1960,-2520,-2940,-129,208,-462
18:49:10.968,,-308,-175,970,1330,-2310,-1540,-129,208,-462
18:49:10.987,,-308,-175,970,1330,-2310,-1540,-126,210,-457
18:49:11.005,,-323,-167,976,70,-1680,-1120,-129,210,-466
18:49:11.024,,-329,-161,979,-700,-1540,-1050,-118,205,-469
18:49:11.043,,-334,-152,992,-560,-1750,-840,-123,207,-459
18:49:11.062,,-338,-148,1001,-700,-1960,-770,-127,204,-462
18:49:11.081,,-340,-148,1002,-1050,-2170,-1190,-118,208,-459
18:49:11.099,,-336,-149,1003,-770,-2240,-1470,-120,210,-463
18:49:11.118,,-330,-155,998,-840,-1960,-1330,-124,210,-465
18:49:11.137,,-324,-164,1005,-1120,-1540,-1050,-124,199,-468
18:49:11.156,,-319,-171,1007,-840,-1260,-700,-109,198,-454
18:49:11.175,,-314,-168,1003,210,-910,0,-121,201,-456
18:49:11.193,,-314,-162,992,70,-140,770,-117,201,-462
18:49:11.212,,-312,-167,991,-1470,490,1260,-118,207,-460
18:49:11.231,,-317,-171,992,-2450,350,1400,-123,205,-469
18:49:11.250,,-322,-165,1003,-2030,-910,1540,-127,208,-466
18:49:11.268,,-325,-154,1009,-1400,-2520,1890,-129,208,-465
18:49:11.287,,-329,-143,1023,-1050,-3710,2240,-123,201,-465
18:49:11.306,,-324,-135,1039,-560,-4130,2030,-121,204,-462
18:49:11.325,,-318,-127,1045,0,-3570,1400,-121,210,-469
18:49:11.344,,-314,-129,1042,-420,-2240,560,-121,196,-453
18:49:11.362,,-312,-141,1042,-1190,-770,-210,-124,204,-450
18:49:11.381,,-313,-155,1036,-1260,140,-770,-127,202,-469
18:49:11.400,,-310,-162,1029,-420,280,-560,-127,207,-468
18:49:11.419,,-305,-157,1018,420,350,140,-121,204,-465
18:49:11.438,,-303,-153,1006,700,840,840,-120,208,-465
18:49:11.456,,-302,-154,999,700,1610,1050,-120,201,-456
18:49:11.475,,-301,-152,996,840,2170,560,-121,207,-459
18:49:11.494,,-300,-155,991,910,2380,0,-118,205,-460
18:49:11.513,,-302,-151,984,1120,2240,-350,-114,210,-454
18:49:11.532,,-309,-145,983,910,1820,-420,-123,201,-454
18:49:11.550,,-318,-147,982,700,1330,-700,-120,204,-469
18:49:11.569,,-329,-146,977,1260,1050,-1400,-124,210,-459
18:49:11.588,,-331,-149,979,1680,910,-1890,-124,199,-459
18:49:11.607,,-330,-158,971,1540,1330,-1820,-130,214,-466
18:49:11.625,,-331,-166,959,910,2030,-1190,-123,207,-454
18:49:11.644,,-332,-175,950,-70,2170,-350,-120,207,-459
18:49:11.663,,-331,-180,944,-980,1470,840,-123,205,-460
18:49:11.682,,-329,-174,951,-1330,-140,1960,-126,202,-454
18:49:11.701,,-324,-158,964,-1400,-1960,2660,-118,208,-468
18:49:11.719,,-322,-138,982,-1470,-3360,2870,-123,207,-462
18:49:11.738,,-317,-136,995,-1960,-3990,2170,-120,199,-462
18:49:11.757,,-308,-134,1004,-1890,-4060,1190,-121,201,-463
18:49:11.776,,-302,-138,1013,-1050,-3710,770,-127,199,-460
18:49:11.795,,-297,-132,1010,-350,-3010,350,-121,199,-457
18:49:11.813,,-295,-133,1000,-210,-1750,-280,-127,205,-459
18:49:11.832,,-296,-142,996,-490,-490,-1120,-118,201,-460
18:49:11.851,,-296,-151,982,-350,140,-1820,-117,202,-459
18:49:11.870,,-302,-152,971,210,140,-1960,-127,201,-459
18:49:11.889,,-311,-152,970,280,-490,-2030,-126,199,-462
18:49:11.907,,-321,-154,969,-70,-1750,-2310,-121,208,-469
18:49:11.926,,-325,-159,980,0,-2940,-2730,-121,204,-463
18:49:11.945,,-325,-167,990,560,-3850,-3150,-126,202,-465
18:49:11.964,,-322,-166,999,1260,-3570,-2730,-126,202,-465
18:49:12.013,,-323,-176,992,-2170,1050,700,-112,213,-463
18:49:12.014,,-323,-176,992,-2170,1050,700,-112,213,-463
18:49:12.020,,-323,-176,992,-2170,1050,700,-112,213,-463
18:49:12.039,,-326,-175,996,-2450,490,1260,-121,207,-466
18:49:12.058,,-327,-161,1008,-1820,-1260,1820,-120,208,-466
18:49:12.076,,-323,-140,1020,-1260,-2940,2520,-127,205,-466
18:49:12.095,,-321,-123,1029,-1190,-3500,2590,-123,204,-466
18:49:12.114,,-322,-118,1041,-1540,-2940,1680,-124,196,-465
18:49:12.133,,-322,-130,1045,-2100,-2170,0,-123,195,-465
18:49:12.152,,-317,-144,1041,-1820,-1890,-1260,-105,202,-463
18:49:12.170,,-316,-154,1034,-1540,-1680,-1050,-124,201,-468
18:49:12.189,,-309,-163,1031,-1820,-2030,-70,-124,201,-466
18:49:12.208,,-300,-165,1034,-1050,-2590,840,-118,204,-465
18:49:12.227,,-294,-154,1035,560,-2730,1400,-121,205,-457
18:49:12.245,,-290,-143,1026,1470,-1960,1540,-124,201,-465
18:49:12.264,,-289,-138,1020,1190,-420,1540,-120,193,-460
18:49:12.283,,-289,-139,1014,560,1190,1260,-111,210,-457
18:49:12.302,,-292,-143,1010,490,2030,840,-118,199,-463
18:49:12.321,,-296,-140,1005,770,2030,420,-132,195,-450
18:49:12.339,,-301,-134,1001,980,1680,70,-118,196,-466
18:49:12.358,,-307,-129,1003,840,1400,-420,-121,207,-466
18:49:12.377,,-313,-124,1005,770,1260,-1260,-121,208,-465
18:49:12.396,,-318,-124,995,1120,1260,-2170,-130,198,-457
18:49:12.415,,-321,-129,986,1470,1470,-3150,-120,204,-462
18:49:12.433,,-325,-141,966,1050,1890,-3780,-121,196,-463
18:49:12.452,,-331,-163,949,-210,1890,-3710,-124,201,-457
18:49:12.471,,-336,-180,948,-1400,770,-3150,-127,205,-468
18:49:12.490,,-339,-191,957,-1820,-1680,-2170,-127,211,-468
18:49:12.508,,-343,-183,982,-1330,-4340,-980,-118,204,-463
18:49:12.527,,-336,-166,1013,-910,-6370,280,-126,204,-466
18:49:12.546,,-320,-151,1039,-700,-6370,1330,-132,199,-454
18:49:12.565,,-303,-142,1061,-840,-4200,1820,-120,193,-460
18:49:12.584,,-289,-145,1062,-1050,-840,2030,-135,195,-466
18:49:12.602,,-279,-154,1051,-1120,2520,2450,-118,201,-468
18:49:12.621,,-279,-156,1034,-1190,4830,3080,-126,202,-468
18:49:12.640,,-287,-150,1016,-1470,5390,3920,-117,202,-469
18:49:12.659,,-299,-138,1014,-980,4130,4480,-123,195,-468
18:49:12.678,,-305,-121,1008,840,2030,4130,-124,201,-463
18:49:12.696,,-310,-103,999,2870,770,3220,-121,201,-457
18:49:12.715,,-308,-99,1001,3640,700,2240,-120,202,-468
18:49:12.734,,-305,-105,988,3710,1960,1260,-129,208,-468
18:49:12.753,,-304,-117,962,3500,4200,210,-129,204,-463
18:49:12.771,,-304,-117,962,2240,6090,-770,-124,210,-465
18:49:12.790,,-309,-140,934,2240,6090,-770,-123,210,-460
18:49:12.809,,-315,-172,911,490,6580,-840,-126,198,-459
18:49:12.828,,-316,-188,900,-350,5110,350,-127,210,-466
18:49:12.847,,-319,-189,904,-910,2520,2100,-120,204,-460
18:49:12.865,,-320,-174,924,-1470,-560,3640,-117,199,-454
18:49:12.884,,-325,-141,953,-1540,-3220,4480,-123,199,-465
18:49:12.903,,-326,-112,982,-1750,-4830,4550,-126,199,-462
18:49:12.922,,-326,-98,992,-1960,-5110,3430,-121,199,-453
18:49:12.941,,-322,-90,1009,-1820,-4410,2170,-121,199,-453
18:49:12.959,,-315,-96,1018,-1750,-3360,1400,-121,207,-465
18:49:12.978,,-306,-105,1014,-1470,-2030,280,-127,208,-468
18:49:12.997,,-300,-117,1010,-1470,-490,-910,-130,198,-462
18:49:13.016,,-300,-131,1003,-1960,700,-1540,-120,205,-462
18:49:13.035,,-302,-146,999,-2310,980,-1540,-123,198,-471
18:49:13.053,,-302,-149,996,-1750,420,-1330,-133,204,-469
18:49:13.072,,-304,-145,994,-630,-350,-840,-120,204,-460
18:49:13.091,,-306,-135,991,140,-910,-490,-121,201,-456
18:49:13.110,,-307,-124,987,630,-700,-350,-121,198,-466
18:49:13.128,,-308,-117,976,420,140,-770,-123,204,-463
18:49:13.147,,-312,-122,963,-490,910,-1610,-115,214,-462
18:49:13.166,,-316,-133,961,-1470,910,-2450,-123,199,-469
18:49:13.185,,-315,-148,965,-1750,-490,-2800,-127,202,-468
18:49:13.204,,-311,-148,967,-700,-2240,-2660,-124,204,-468
18:49:13.222,,-311,-135,977,-70,-3150,-2380,-124,204,-468
18:49:13.241,,-312,-135,984,-840,-3150,-2800,-124,198,-462
18:49:13.260,,-317,-144,987,-1470,-2730,-3640,-130,198,-469
18:49:13.279,,-323,-155,989,-1610,-2450,-4340,-120,205,-462
18:49:13.298,,-327,-168,990,-1960,-2380,-4200,-114,195,-468
18:49:13.316,,-326,-175,997,-2170,-2520,-2940,-124,193,-459
18:49:13.335,,-323,-177,1006,-2380,-2590,-1330,-124,204,-472
18:49:13.354,,-324,-168,1016,-2450,-2520,350,-126,198,-474
18:49:13.373,,-325,-154,1025,-2520,-2310,1890,-124,201,-468
18:49:13.392,,-322,-136,1031,-2310,-1820,2940,-121,199,-465
18:49:13.410,,-318,-121,1037,-1470,-1120,3500,-126,196,-465
18:49:13.429,,-309,-111,1036,-490,-280,3430,-115,205,-462
18:49:13.448,,-300,-106,1029,210,770,2940,-120,204,-466
18:49:13.467,,-291,-108,1017,700,1750,1890,-121,199,-460
18:49:13.485,,-286,-114,1000,770,2730,700,-118,202,-466
18:49:13.504,,-286,-126,987,560,3290,-490,-115,201,-465
18:49:13.523,,-289,-138,978,490,3080,-1330,-118,205,-453
18:49:13.542,,-291,-145,973,770,2450,-1820,-126,193,-460
18:49:13.561,,-293,-142,966,1190,1820,-1960,-126,204,-465
18:49:13.579,,-293,-139,958,1190,1750,-1960,-121,205,-463
18:49:13.598,,-298,-138,951,700,1890,-2170,-126,205,-462
18:49:13.617,,-307,-140,942,280,1820,-2380,-124,204,-462
18:49:13.636,,-317,-144,941,-70,1330,-2660,-117,202,-466
18:49:13.655,,-324,-146,943,-280,350,-2730,-123,207,-463
18:49:13.673,,-323,-146,947,-350,-910,-2450,-124,201,-469
18:49:13.692,,-322,-143,962,-420,-1750,-2240,-130,211,-466
18:49:13.711,,-322,-142,975,-630,-2100,-2100,-123,201,-466
18:49:13.730,,-323,-141,984,-560,-1890,-1890,-120,204,-463
18:49:13.748,,-325,-139,990,-420,-1190,-1680,-126,201,-469
18:49:13.767,,-322,-142,987,-490,-280,-1540,-129,205,-463
18:49:13.786,,-320,-146,980,-560,560,-1330,-120,205,-468
18:49:13.805,,-320,-155,971,-1050,980,-980,-121,210,-466
18:49:13.824,,-321,-164,967,-1400,490,-630,-132,198,-459
18:49:13.842,,-323,-162,972,-1190,-840,0,-117,201,-471
18:49:13.861,,-320,-153,980,-700,-2310,910,-123,208,-462
18:49:13.880,,-316,-138,991,0,-3010,1610,-124,204,-469
18:49:13.899,,-309,-125,997,560,-2660,1890,-124,204,-469
18:49:13.918,,-302,-119,997,840,-1260,1680,-121,199,-460
18:49:13.936,,-295,-123,988,490,420,1120,-118,202,-450
18:49:13.955,,-292,-134,976,0,1610,350,-118,201,-451
18:49:13.974,,-291,-146,969,70,1890,-140,-121,202,-465
18:49:13.993,,-292,-152,969,350,1260,-140,-133,208,-466
18:49:14.011,<gest7_left,,,,,,,,,
18:49:14.012,,-294,-148,971,840,350,140,-117,207,-456
18:49:14.030,,-299,-134,972,980,-210,280,-129,202,-456
18:49:14.049,,-305,-126,972,490,-140,-70,-120,201,-456
18:49:14.068,,-314,-125,974,140,210,-700,-123,202,-457
18:49:14.087,,-321,-130,972,-420,280,-1400,-118,208,-465
18:49:14.105,,-323,-138,972,-700,0,-1680,-124,204,-466
18:49:14.124,,-323,-140,976,-770,-630,-1610,-130,199,-472
18:49:14.143,,-323,-141,979,-840,-1400,-1120,-117,211,-462
18:49:14.162,,-321,-137,990,-770,-2030,-630,-124,202,-460
18:49:14.181,,-322,-131,997,-770,-2030,-280,-121,211,-463
18:49:14.199,,-320,-130,998,-840,-1610,-140,-124,207,-466
18:49:14.218,,-316,-130,995,-770,-840,-70,-124,208,-471
18:49:14.237,,-314,-136,993,-840,-210,0,-118,202,-463
18:49:14.256,,-309,-144,987,-560,-70,0,-120,196,-451
18:49:14.275,,-307,-143,980,-140,-140,350,-126,196,-459
18:49:14.293,,-305,-144,983,-490,-350,840,-121,198,-465
18:49:14.312,,-302,-143,987,-700,-980,980,-118,205,-463
18:49:14.331,,-302,-133,992,0,-1400,840,-127,201,-474
18:49:14.350,,-302,-121,993,280,-1260,630,-124,207,-469
18:49:14.368,,-303,-118,994,70,-490,280,-118,193,-456
18:49:14.387,,-302,-119,995,-420,420,-560,-118,196,-451
18:49:14.406,,-308,-126,987,-1050,1050,-1610,-127,201,-457
18:49:14.425,,-315,-137,985,-1890,840,-2520,-118,204,-459
18:49:14.444,,-325,-145,987,-2730,-350,-3080,-117,202,-459
18:49:14.462,,-334,-151,995,-3290,-2170,-3080,-120,205,-466
18:49:14.481,,-339,-158,1008,-3500,-4060,-2870,-120,202,-465
18:49:14.500,,-340,-163,1018,-3220,-5600,-2240,-121,207,-469
18:49:14.519,,-333,-162,1029,-2520,-6440,-910,-123,198,-460
18:49:14.538,,-324,-156,1030,-1890,-6230,630,-123,208,-459
18:49:14.556,,-314,-156,1028,-1610,-4970,1820,-124,198,-465
18:49:14.575,,-314,-150,1028,-1610,-4970,1820,-120,198,-463
18:49:14.594,,-305,-149,1028,-1680,-3500,2450,-123,195,-459
18:49:14.613,,-297,-146,1025,-1260,-2380,2730,-121,199,-463
18:49:14.632,,-291,-137,1019,-490,-1470,2800,-120,204,-466
18:49:14.650,,-284,-130,1015,-140,-560,2800,-115,201,-466
18:49:14.669,,-286,-125,1010,-420,280,2310,-115,201,-460
18:49:14.688,,-291,-127,1007,-770,700,1190,-114,196,-459
18:49:14.707,,-298,-128,1008,-420,490,-210,-120,204,-459
18:49:14.726,,-304,-131,1005,210,0,-1260,-118,202,-466
18:49:14.744,,-308,-127,1002,1120,0,-1750,-126,195,-457
18:49:14.763,,-308,-129,997,1330,700,-2100,-118,195,-469
18:49:14.782,,-308,-137,983,1050,2100,-2590,-124,195,-465
18:49:14.801,,-315,-152,966,700,3360,-3150,-111,204,-469
18:49:14.819,,-318,-173,951,-70,3360,-3080,-120,198,-459
18:49:14.838,,-320,-185,947,-490,2100,-2030,-132,204,-463
18:49:14.857,,-322,-181,950,-630,210,-420,-121,199,-468
18:49:14.876,,-321,-167,965,-1120,-1820,840,-121,199,-468
18:49:14.895,,-324,-151,982,-1750,-3290,1330,-121,204,-462
18:49:14.913,,-323,-141,1002,-2450,-4060,1050,-124,195,-463
18:49:14.932,,-323,-138,1018,-2940,-4200,630,-121,192,-456
18:49:14.951,,-322,-141,1020,-3290,-3920,560,-115,196,-460
