Sensors' Acquisition [Hz]: Acc@52.0 Gyro@52.0 Mag@52.0 
hh:mm:ss.ms, Annotation , AccX [mg], AccY, AccZ, GyroX [mdps], GyroY, GyroZ, MagX [mgauss], MagY, MagZ
19:06:31.646,,-13,-346,985,38080,-52430,-63140,277,-72,-222
19:06:31.665,,-2,-371,1016,159950,-243950,-229320,279,-72,-222
19:06:31.684,,-2,-371,1016,159950,-243950,-229320,288,-67,-231
19:06:31.702,,16,-342,1041,38360,-39690,-10360,276,-66,-232
19:06:31.721,,30,-321,1049,34930,-9100,4130,270,-63,-243
19:06:31.740,,44,-315,1048,46200,-7140,2240,273,-58,-235
19:06:31.759,,57,-306,1058,62720,-1260,-1470,271,-64,-232
19:06:31.778,,41,-331,1098,77420,5320,-4970,262,-76,-235
19:06:31.796,,52,-189,1167,90230,10920,-9590,256,-70,-240
19:06:31.815,,39,-110,1194,87220,19740,-13930,247,-72,-249
19:06:31.834,,7,-83,1192,74550,28280,-16030,240,-67,-246
19:06:31.853,,-39,-77,1131,64120,32690,-17850,238,-66,-256
19:06:31.871,,-67,-68,1066,58450,30450,-21560,235,-57,-252
19:06:31.890,,-85,-39,1079,49420,25410,-23310,235,-64,-262
19:06:31.909,,-88,-68,1113,33460,20440,-21770,232,-60,-261
19:06:31.928,,-104,-91,1108,22820,16660,-21420,220,-57,-268
19:06:31.947,,-118,-89,1040,21420,14630,-21840,225,-57,-264
19:06:31.965,,-158,-106,962,19880,12600,-21140,228,-57,-262
19:06:31.984,,-162,-127,944,18620,7840,-17570,216,-63,-264
19:06:32.003,,-163,-128,963,18620,4830,-16170,213,-58,-265
19:06:32.022,,-172,-142,970,16310,3850,-14000,219,-58,-268
19:06:32.040,,-180,-92,946,11130,2450,-12250,216,-61,-268
19:06:32.059,,-173,-95,933,280,0,-12250,213,-57,-258
19:06:32.078,,-189,-102,935,-9800,-490,-10780,220,-64,-262
19:06:32.097,,-194,-118,952,-12250,-1750,-10220,213,-54,-255
19:06:32.116,,-181,-124,967,-8190,-3990,-10080,228,-66,-264
19:06:32.134,,-180,-171,962,-5040,-3570,-9520,217,-64,-261
19:06:32.153,,-171,-158,966,-1330,-3010,-10150,217,-57,-265
19:06:32.172,,-155,-119,993,-140,-2590,-10150,216,-58,-258
19:06:32.191,,-150,-94,999,-700,-2800,-9800,214,-61,-262
19:06:32.210,,-134,-98,1020,-490,-3010,-9730,214,-61,-262
19:06:32.228,,-127,-110,1030,-1750,-2520,-8540,219,-64,-258
19:06:32.247,,-124,-93,1023,-2520,-1820,-8680,219,-57,-265
19:06:32.266,,-122,-86,1028,-700,-1610,-9940,205,-58,-262
19:06:32.285,,-128,-60,1050,-560,-1540,-11130,208,-58,-261
19:06:32.303,,-132,-68,1056,-910,-2240,-12600,214,-58,-256
19:06:32.322,,-144,-73,1054,3010,-3220,-13090,204,-54,-255
19:06:32.341,,-147,-75,1051,8120,-4970,-13020,222,-58,-267
19:06:32.360,,-146,-75,1054,12530,-6090,-12810,214,-55,-259
19:06:32.379,,-152,-70,1066,14700,-6790,-12600,202,-64,-264
19:06:32.397,,-145,-69,1074,13650,-7700,-11550,211,-63,-259
19:06:32.416,,-150,-76,1086,10640,-6580,-9450,216,-72,-253
19:06:32.435,,-148,-90,1094,8330,-5460,-7350,193,-61,-264
19:06:32.454,,-151,-84,1095,6230,-3850,-5320,207,-67,-252
19:06:32.473,,-149,-79,1078,3220,-2380,-3220,217,-69,-244
19:06:32.491,,-149,-82,1055,1750,-560,-1120,199,-72,-258
19:06:32.510,,-148,-87,1050,3500,1050,420,205,-64,-259
19:06:32.529,,-142,-65,1064,4900,2800,1470,204,-66,-261
19:06:32.548,,-142,-66,1068,2310,5320,2380,205,-64,-247
19:06:32.567,,-145,-58,1067,-1190,7700,3010,207,-66,-265
19:06:32.585,,-145,-68,1056,-3290,9520,3360,205,-61,-259
19:06:32.604,,-146,-68,1052,-1960,11270,3430,207,-61,-265
19:06:32.623,,-154,-63,1042,210,12950,3290,204,-54,-262
19:06:32.642,,-169,-72,1038,490,13230,2940,207,-58,-264
19:06:32.660,,-146,-34,1041,-1190,12390,1960,208,-63,-256
19:06:32.679,,-162,-48,1036,-4130,13370,3920,210,-60,-267
19:06:32.698,,-166,-40,1035,-5320,13370,4480,202,-57,-264
19:06:32.717,,-171,-25,1038,-5460,12110,4970,208,-57,-252
19:06:32.736,,-176,-30,1043,-4200,9590,5460,213,-55,-268
19:06:32.754,,-180,-41,1043,-2940,7350,5810,211,-57,-259
19:06:32.773,,-185,-27,1035,-1960,4690,4620,210,-55,-262
19:06:32.792,,-174,-40,1029,210,2100,4270,205,-51,-271
19:06:32.811,,-174,-22,1032,2240,1820,4270,207,-55,-262
19:06:32.830,,-174,-17,1046,1190,700,3080,205,-54,-265
19:06:32.848,,-149,-24,1060,-1050,-700,1960,208,-52,-262
19:06:32.867,,-166,-39,1059,-1470,-560,840,208,-55,-265
19:06:32.886,,-129,-46,1046,1050,-2660,-1960,211,-51,-258
19:06:32.905,,-141,-25,1048,5740,-1680,-2940,211,-58,-262
19:06:32.923,,-140,-36,1031,7560,-2660,-3920,205,-49,-271
19:06:32.942,,-140,-42,1029,6370,-3920,-4830,210,-57,-264
19:06:32.961,,-139,-51,1029,2870,-4550,-5670,207,-49,-255
19:06:32.980,,-138,-69,1041,2940,-5460,-6650,199,-52,-264
19:06:32.999,,-143,-62,1029,5670,-6020,-7420,204,-55,-268
19:06:33.017,,-141,-65,1033,7490,-6930,-7700,211,-57,-264
19:06:33.036,,-141,-59,1033,7000,-7770,-7910,202,-63,-265
19:06:33.055,,-143,-71,1035,4480,-8190,-7700,204,-55,-265
19:06:33.074,,-145,-87,1037,3010,-8750,-7350,210,-57,-273
19:06:33.093,,-145,-82,1031,3500,-9310,-7210,201,-60,-267
19:06:33.111,,-145,-64,1035,4410,-9450,-7070,198,-57,-264
19:06:33.130,,-141,-57,1039,3710,-9870,-6720,201,-55,-262
19:06:33.149,,-135,-68,1038,2380,-9590,-6300,208,-61,-256
19:06:33.168,,-136,-68,1030,1750,-8820,-6510,198,-58,-271
19:06:33.186,,-127,-63,1040,2450,-8610,-7420,198,-58,-271
19:06:33.205,,-130,-49,1048,2380,-7700,-7910,201,-60,-264
19:06:33.224,,-127,-44,1049,1470,-7000,-8330,195,-58,-261
19:06:33.243,,-132,-40,1048,630,-6860,-9030,199,-64,-264
19:06:33.262,,-118,-36,1046,560,-6510,-9800,201,-63,-259
19:06:33.280,,-121,-35,1049,910,-4760,-9800,208,-69,-256
19:06:33.299,,-122,-29,1045,280,-3850,-10290,204,-67,-250
19:06:33.318,,-125,-22,1038,-1050,-3500,-10640,207,-72,-259
19:06:33.337,,-125,-23,1039,-2170,-4060,-11060,199,-70,-259
19:06:33.356,,-126,-35,1039,-2310,-4620,-11270,196,-66,-270
19:06:33.374,,-124,-45,1048,-560,-5320,-11130,199,-61,-264
19:06:33.393,,-126,-47,1051,1400,-5390,-10850,199,-69,-271
19:06:33.412,,-125,-49,1050,1890,-5040,-10220,205,-67,-256
19:06:33.431,,-130,-57,1049,910,-4270,-9030,201,-63,-261
19:06:33.449,,-132,-69,1058,140,-3640,-7700,193,-66,-264
19:06:33.468,,-132,-69,1057,140,-3360,-6510,196,-66,-258
19:06:33.487,,-132,-81,1057,140,-3360,-6510,198,-64,-258
19:06:33.506,,-131,-82,1057,1050,-2660,-5180,202,-66,-264
19:06:33.525,,-131,-80,1054,630,-1820,-3710,199,-76,-262
19:06:33.543,,-131,-82,1059,-350,-1050,-2170,193,-70,-268
19:06:33.562,,-125,-81,1065,-840,-420,-840,198,-64,-264
19:06:33.581,,-124,-72,1061,-980,350,420,192,-67,-255
19:06:33.600,,-120,-63,1062,-1120,1050,1330,198,-66,-256
19:06:33.619,,-115,-49,1059,-1470,1470,1680,199,-61,-264
19:06:33.637,,-113,-43,1061,-1470,1890,2100,204,-72,-256
19:06:33.656,,-105,-32,1060,-1120,2310,1890,205,-70,-262
19:06:33.675,,-106,-30,1053,-1050,2800,1470,195,-70,-262
19:06:33.694,,-104,-20,1057,-840,2940,770,196,-63,-261
19:06:33.712,,-105,-24,1047,-980,2870,210,199,-72,-256
19:06:33.731,,-108,-24,1046,-420,2520,-280,201,-67,-264
19:06:33.750,,-113,-25,1042,280,1890,-630,198,-78,-259
19:06:33.769,,-119,-35,1043,700,980,-770,196,-69,-271
19:06:33.788,,-123,-39,1040,1330,-210,-770,195,-69,-271
19:06:33.806,,-126,-44,1044,2240,-1190,-490,196,-67,-267
19:06:33.825,,-127,-45,1040,2380,-1820,-210,201,-61,-265
19:06:33.844,,-123,-46,1044,2100,-1960,0,202,-67,-258
19:06:33.863,,-120,-49,1040,1470,-1470,-140,195,-67,-265
19:06:33.882,,-117,-51,1047,770,-770,-560,190,-72,-268
19:06:33.900,,-117,-52,1045,0,-70,-910,196,-69,-264
19:06:33.919,,-117,-58,1046,-560,280,-1050,196,-66,-268
19:06:33.938,,-115,-55,1045,-910,420,-980,196,-64,-255
19:06:33.957,,-118,-58,1045,-1400,490,-560,196,-63,-262
19:06:33.975,,-115,-52,1051,-1400,350,-210,198,-67,-265
19:06:33.994,,-116,-48,1052,-1260,490,350,193,-66,-267
19:06:34.013,,-114,-39,1055,-1120,560,560,195,-64,-268
19:06:34.032,,-116,-31,1055,-1400,770,770,207,-64,-249
19:06:34.051,,-115,-30,1054,-1330,840,770,195,-58,-258
19:06:34.069,,-117,-24,1060,-1050,1050,420,199,-63,-256
19:06:34.088,,-118,-24,1058,-980,1050,70,205,-70,-264
19:06:34.107,,-120,-27,1054,-490,980,-140,198,-67,-262
19:06:34.126,,-123,-25,1049,210,910,-140,202,-69,-265
19:06:34.144,,-127,-30,1044,210,700,-210,196,-60,-270
19:06:34.163,,-129,-32,1048,280,490,-490,196,-60,-270
19:06:34.182,,-129,-34,1049,560,140,-700,199,-70,-271
19:06:34.201,,-126,-32,1054,700,-70,-910,195,-60,-261
19:06:34.220,,-124,-37,1049,490,-70,-1120,198,-69,-261
19:06:34.238,,-121,-37,1051,490,140,-1330,192,-69,-267
19:06:34.257,,-119,-38,1058,350,630,-1540,201,-69,-270
19:06:34.276,,-120,-41,1054,0,980,-1540,204,-63,-270
19:06:34.295,,-120,-40,1054,350,1190,-1680,198,-58,-271
19:06:34.314,,-121,-38,1054,280,1400,-1750,201,-73,-270
19:06:34.332,,-122,-39,1055,280,1260,-1540,193,-66,-262
19:06:34.351,,-124,-37,1050,630,1190,-1330,192,-64,-271
19:06:34.370,,-125,-31,1050,1120,1050,-1190,202,-60,-261
19:06:34.389,,-124,-27,1048,1400,840,-1330,193,-61,-261
19:06:34.407,,-124,-21,1046,1820,910,-1540,193,-61,-268
19:06:34.420,>gest4_cross_right,,,,,,,,,
19:06:34.426,,-123,-20,1048,1750,1050,-1890,193,-58,-267
19:06:34.445,,-123,-21,1052,1610,1050,-2590,195,-64,-261
19:06:34.464,,-126,-24,1049,1680,910,-3360,193,-63,-265
19:06:34.483,,-125,-32,1049,1610,490,-3920,196,-73,-264
19:06:34.501,,-128,-36,1055,1960,210,-4200,192,-67,-262
19:06:34.520,,-127,-41,1059,2240,-210,-4200,190,-61,-265
19:06:34.539,,-130,-45,1057,2170,-280,-3850,195,-57,-261
19:06:34.558,,-131,-50,1055,2170,-420,-3290,193,-61,-270
19:06:34.577,,-131,-52,1052,2240,-280,-2730,186,-60,-262
19:06:34.595,,-135,-47,1046,2100,0,-2030,195,-66,-273
19:06:34.614,,-138,-43,1036,1470,210,-1190,193,-66,-268
19:06:34.633,,-146,-39,1031,1050,420,-350,192,-66,-271
19:06:34.652,,-154,-37,1029,350,420,210,202,-69,-265
19:06:34.670,,-158,-38,1034,490,-210,490,201,-69,-270
19:06:34.689,,-154,-37,1038,1330,-840,420,192,-61,-264
19:06:34.708,,-148,-40,1039,1820,-1330,70,193,-58,-255
19:06:34.727,,-136,-35,1038,1470,-1540,-350,189,-61,-265
19:06:34.746,,-129,-28,1034,140,-1190,-630,195,-64,-267
19:06:34.764,,-121,-25,1038,-1050,-1050,-910,187,-63,-268
19:06:34.783,,-116,-21,1034,-1820,-1400,-1470,187,-61,-259
19:06:34.802,,-114,-11,1028,-1890,-2240,-2380,195,-64,-261
19:06:34.821,,-114,-4,1015,-2450,-3360,-3290,199,-64,-268
19:06:34.840,,-122,1,1000,-3850,-4550,-3990,196,-61,-271
19:06:34.858,,-127,3,1002,-4970,-6370,-4830,196,-63,-259
19:06:34.877,,-127,-5,1011,-5600,-8820,-5600,192,-69,-265
19:06:34.896,,-125,2,1010,-5950,-11060,-6580,190,-66,-261
19:06:34.915,,-122,-3,1016,-7210,-12600,-6860,195,-66,-268
19:06:34.933,,-114,-17,1032,-8190,-13650,-7210,190,-66,-268
19:06:34.952,,-105,-32,1050,-7630,-14280,-7490,201,-78,-262
19:06:34.971,,-99,-41,1059,-6160,-14350,-7560,196,-75,-256
19:06:34.990,,-96,-55,1069,-5180,-14070,-6860,193,-73,-261
19:06:35.009,,-93,-68,1073,-4690,-13510,-6020,190,-79,-253
19:06:35.027,,-94,-75,1079,-3990,-12530,-4690,198,-70,-261
19:06:35.046,,-92,-83,1094,-3220,-11900,-3500,195,-72,-258
19:06:35.065,,-85,-83,1106,-1890,-11340,-2030,196,-79,-255
19:06:35.084,,-81,-81,1111,-490,-10570,-490,201,-75,-247
19:06:35.102,,-79,-73,1112,910,-9660,840,193,-81,-264
19:06:35.121,,-79,-58,1120,1820,-8610,1750,198,-72,-256
19:06:35.140,,-79,-52,1131,1750,-7910,2660,198,-72,-256
19:06:35.159,,-83,-42,1140,1750,-7560,3920,186,-79,-259
19:06:35.178,,-91,-34,1166,2380,-7770,5950,198,-81,-246
19:06:35.196,,-89,-25,1194,2870,-8610,8120,193,-75,-258
19:06:35.215,,-100,-7,1241,3990,-9450,10990,186,-79,-253
19:06:35.234,,-108,10,1308,3360,-11270,14210,192,-82,-246
19:06:35.253,,-117,46,1429,-4270,-12390,18690,187,-82,-256
19:06:35.272,,-117,46,1429,-4270,-12390,18690,196,-81,-261
19:06:35.290,,-114,54,1578,-13160,-13860,26810,193,-82,-249
19:06:35.309,,-91,43,1715,-11060,-12810,35770,199,-78,-256
19:06:35.328,,-37,43,1812,6790,-8750,40460,204,-81,-256
19:06:35.347,,22,64,1867,31360,-70,37100,202,-81,-265
19:06:35.366,,84,111,1851,50890,16100,28280,201,-76,-265
19:06:35.384,,80,107,1771,57470,38570,19530,190,-69,-271
19:06:35.403,,94,46,1700,60270,59290,10570,189,-63,-291
19:06:35.422,,67,-13,1638,71330,78890,2310,174,-60,-291
19:06:35.441,,76,-48,1479,91840,94640,-6860,163,-49,-301
19:06:35.459,,34,-34,1299,110740,110040,-15890,151,-51,-304
19:06:35.478,,27,-21,1097,114450,121870,-26390,135,-33,-309
19:06:35.497,,-5,-32,881,104300,133210,-33250,127,-18,-312
19:06:35.516,,-60,-69,700,86240,142030,-36400,115,-6,-331
19:06:35.535,,-111,-124,623,71330,143220,-36050,105,7,-316
19:06:35.553,,-185,-203,569,68530,136150,-30730,100,24,-334
19:06:35.572,,-230,-213,474,78190,122220,-27090,84,34,-333
19:06:35.591,,-263,-156,379,86660,106120,-23800,73,51,-337
19:06:35.610,,-281,-74,258,84770,90720,-19040,64,57,-336
19:06:35.629,,-299,-10,176,71330,78190,-12810,58,64,-325
19:06:35.647,,-328,3,143,53620,66500,-4270,52,69,-327
19:06:35.666,,-350,24,147,41370,52990,2660,46,70,-327
19:06:35.685,,-369,93,163,37870,38850,8750,42,84,-328
19:06:35.704,,-368,174,173,33740,24710,13300,45,82,-321
19:06:35.722,,-383,257,170,23310,12390,15470,39,81,-327
19:06:35.741,,-418,312,191,10150,2730,17640,36,76,-324
19:06:35.760,,-451,315,241,-2940,-5950,18340,34,81,-328
19:06:35.779,,-475,314,301,-14140,-14700,15680,49,73,-324
19:06:35.798,,-489,282,313,-23170,-21980,11970,40,69,-324
19:06:35.816,,-468,236,281,-33810,-27720,6860,58,69,-333
19:06:35.835,,-449,179,282,-48230,-32340,1330,52,52,-324
19:06:35.854,,-467,109,320,-65170,-36610,-3010,78,54,-325
19:06:35.873,,-491,50,396,-81270,-44800,-5390,82,55,-336
19:06:35.891,,-499,-29,438,-94920,-56490,-6020,93,48,-316
19:06:35.910,,-454,-96,478,-100660,-71610,-6160,100,30,-315
19:06:35.929,,-434,-124,538,-98140,-82320,-3920,118,19,-321
19:06:35.948,,-446,-134,609,-96180,-89180,-1540,129,12,-322
19:06:35.967,,-413,-122,702,-101780,-98980,-1750,141,0,-306
19:06:35.985,,-372,-171,769,-115640,-109620,1050,148,-7,-306
19:06:36.004,,-304,-297,874,-129430,-122990,8120,159,-21,-298
19:06:36.023,,-207,-420,1073,-129010,-140070,17570,175,-34,-288
19:06:36.042,,-101,-465,1258,-106960,-156310,30800,187,-43,-282
19:06:36.061,,-12,-377,1397,-69510,-162400,42700,186,-55,-262
19:06:36.079,,85,-132,1557,-39690,-160720,50540,195,-66,-261
19:06:36.098,,164,63,1725,-36050,-149940,60410,198,-66,-255
19:06:36.117,,226,162,1884,-51590,-131250,66920,202,-76,-253
19:06:36.136,,283,177,1939,-64680,-107940,64960,202,-76,-253
19:06:36.154,,279,171,1934,-56490,-80360,57610,217,-81,-234
19:06:36.173,,239,224,1881,-36820,-53550,46760,217,-84,-231
19:06:36.192,,218,264,1795,-23660,-30590,36330,220,-79,-228
19:06:36.211,,188,227,1663,-20930,-13650,29820,223,-97,-231
19:06:36.230,,146,116,1486,-18830,-3360,25830,222,-93,-234
19:06:36.248,,203,123,1385,3640,3570,17080,220,-85,-219
19:06:36.267,,50,155,1303,20090,12110,13860,228,-81,-231
19:06:36.286,,91,-11,1195,-1050,6300,19040,222,-82,-225
19:06:36.305,,89,-110,1117,1960,2520,19740,220,-79,-234
19:06:36.324,,105,-72,1110,26740,1120,18690,220,-81,-241
19:06:36.342,,62,58,1151,46200,4060,14560,216,-81,-240
19:06:36.361,,2,109,1227,44030,5110,15330,219,-76,-235
19:06:36.380,,-56,135,1372,38150,4130,21420,214,-78,-243
19:06:36.399,,-87,186,1601,46060,2310,29890,211,-70,-246
19:06:36.417,,-69,263,1811,65310,2870,37590,210,-76,-253
19:06:36.436,,-10,304,1902,80640,12040,39340,202,-78,-252
19:06:36.455,,-12,280,1914,85890,33110,33040,199,-63,-247
19:06:36.474,,-10,197,1890,80640,58030,25760,196,-57,-256
19:06:36.493,,-2,58,1845,74340,83650,21210,180,-63,-261
19:06:36.511,,3,-111,1731,78960,108150,19110,190,-46,-261
19:06:36.530,,-15,-176,1563,99400,128800,19740,174,-52,-274
19:06:36.549,,-12,-179,1387,121800,144060,21420,165,-37,-277
19:06:36.568,,-12,-149,1216,132860,155190,22190,157,-33,-286
19:06:36.586,,9,-81,1063,132510,161770,22050,151,-24,-300
19:06:36.605,,55,-94,872,128030,164290,21980,135,-13,-304
19:06:36.624,,104,-100,653,123830,163800,17500,124,-3,-315
19:06:36.643,,115,-31,478,117390,161840,14490,118,12,-315
19:06:36.662,,101,64,337,100660,155820,15400,105,28,-327
19:06:36.680,,48,148,234,72310,144830,20580,88,36,-328
19:06:36.699,,0,158,168,45710,126700,27370,93,48,-330
19:06:36.718,,-63,199,148,35560,103950,33460,79,61,-321
19:06:36.737,,-107,255,143,43680,77840,33950,76,78,-322
19:06:36.756,,-137,386,130,56280,54950,28140,76,73,-321
19:06:36.774,,-156,520,110,54180,36470,19530,64,81,-328
19:06:36.793,,-174,591,128,37100,20300,11690,58,87,-328
19:06:36.812,,-175,544,159,13020,4900,1680,54,85,-319
19:06:36.831,,-182,480,205,-3430,-9380,-11200,58,85,-324
19:06:36.849,,-190,451,246,-7770,-21770,-24290,58,81,-313
19:06:36.868,,-194,500,288,-8820,-33320,-36400,63,78,-321
19:06:36.887,,-179,530,309,-18760,-44800,-46200,72,82,-321
19:06:36.906,,-164,513,328,-35630,-55300,-55790,69,76,-313
19:06:36.925,,-165,468,371,-50890,-65660,-66220,79,76,-312
19:06:36.943,,-174,435,428,-59710,-78120,-78330,81,57,-316
19:06:36.962,,-161,418,462,-62160,-93870,-89670,94,64,-313
19:06:36.981,,-152,438,476,-62790,-107730,-100240,99,46,-315
19:06:37.000,,-130,402,480,-62650,-122570,-108920,106,36,-309
19:06:37.018,,-187,392,551,-63280,-139160,-119070,117,27,-313
19:06:37.037,,-177,381,658,-65520,-162540,-127330,124,12,-313
19:06:37.056,,-146,381,745,-63420,-181580,-134470,129,3,-307
19:06:37.075,,-146,345,745,-63420,-181580,-134470,132,-15,-306
19:06:37.094,,-147,333,803,-57610,-195510,-142730,139,-33,-304
19:06:37.112,,-134,303,907,-60970,-208180,-152740,139,-33,-304
19:06:37.131,,-146,202,1071,-72520,-214620,-163800,147,-42,-291
19:06:37.150,,-113,-16,1320,-76860,-218260,-171990,139,-60,-288
19:06:37.169,,29,-323,1746,-62090,-216510,-173950,151,-73,-274
19:06:37.188,,223,-564,1996,-30800,-200900,-164080,154,-100,-258
19:06:37.206,,276,-551,1998,2030,-163240,-136850,144,-103,-247
19:06:37.225,,251,-486,1998,-1820,-114030,-104160,141,-114,-255
19:06:37.244,,168,-472,1998,-34020,-63420,-73010,139,-115,-255
19:06:37.263,,50,-479,1935,-55440,-21210,-44800,141,-112,-241
19:06:37.281,,-38,-400,1670,-45290,4620,-25270,147,-118,-241
19:06:37.300,,-87,-212,1453,-20720,19810,-13790,145,-108,-247
19:06:37.319,,-97,-81,1267,-8890,26670,-4970,144,-109,-246
19:06:37.338,,-80,-41,1148,-6860,27090,910,141,-106,-246
19:06:37.357,,-44,-28,1093,-5390,24710,2870,139,-108,-252
19:06:37.375,,-24,-12,1043,-2030,22190,4060,153,-102,-255
19:06:37.394,,-7,-6,1004,1260,19250,5950,147,-99,-259
19:06:37.413,,9,2,981,2240,16380,7490,141,-103,-250
19:06:37.432,,25,7,967,1680,14700,8750,138,-103,-253
19:06:37.451,,35,13,960,1750,13580,9800,147,-100,-252
19:06:37.469,,34,11,968,1260,12460,9940,139,-93,-252
19:06:37.488,,27,15,980,840,10710,9240,144,-97,-256
19:06:37.507,,19,27,991,420,8400,7980,147,-99,-255
19:06:37.526,,22,33,1000,-490,5880,7280,142,-97,-258
19:06:37.544,,19,32,1005,-1960,4550,7140,142,-99,-253
19:06:37.563,,18,26,1022,-2730,3640,6930,147,-94,-259
19:06:37.582,,9,28,1040,-2520,3430,6580,148,-97,-247
19:06:37.601,,3,44,1052,-2240,3010,5740,157,-100,-243
19:06:37.620,,-10,58,1051,-3780,2870,4690,150,-99,-249
19:06:37.638,,-23,43,1032,-6650,2030,3640,151,-97,-255
19:06:37.657,,-28,28,1046,-6090,840,2520,148,-97,-247
19:06:37.676,,-30,42,1054,-4060,-700,1050,159,-100,-250
19:06:37.695,,-24,34,1058,-2870,-2730,350,145,-91,-253
19:06:37.714,,-10,33,1069,-770,-4480,-700,151,-94,-258
19:06:37.732,,0,36,1072,980,-5530,-1470,153,-100,-250
19:06:37.751,,8,38,1070,1120,-5950,-1820,154,-97,-247
19:06:37.770,,18,23,1079,350,-6370,-1540,162,-105,-243
19:06:37.789,,21,20,1081,-140,-6370,-1050,153,-97,-235
19:06:37.807,,19,13,1075,-280,-6230,-210,153,-103,-241
19:06:37.826,,25,13,1083,1750,-6300,210,150,-100,-243
19:06:37.845,,29,28,1083,3430,-5670,280,150,-103,-250
19:06:37.864,,37,32,1079,3080,-4760,280,157,-102,-246
19:06:37.883,,41,32,1080,1820,-3290,-280,160,-102,-240
19:06:37.901,,37,31,1071,910,-1540,-980,153,-108,-246
19:06:37.920,,37,20,1064,770,-350,-1750,150,-99,-240
19:06:37.939,,35,20,1060,1330,560,-2380,147,-93,-256
19:06:37.958,,35,16,1051,1260,1190,-2450,153,-102,-256
19:06:37.977,,31,8,1050,980,2030,-1960,142,-102,-259
19:06:37.995,,21,13,1049,630,2520,-1680,151,-106,-253
19:06:38.014,,12,10,1043,-840,2380,-1260,150,-105,-250
19:06:38.033,,8,9,1036,-2170,1890,-840,147,-100,-247
19:06:38.052,,5,3,1036,-3080,1400,-280,157,-105,-246
19:06:38.070,,7,-5,1036,-2170,910,280,153,-103,-249
19:06:38.089,,6,2,1048,350,980,700,150,-100,-246
19:06:38.108,,7,15,1055,700,1050,980,150,-100,-246
19:06:38.127,,8,8,1060,-630,1260,1540,145,-105,-253
19:06:38.146,,11,7,1060,-560,1330,1820,154,-99,-255
19:06:38.164,,14,9,1060,350,1960,2170,151,-100,-246
19:06:38.183,,10,16,1065,0,2520,2590,156,-97,-250
19:06:38.202,,9,12,1059,-980,2520,3010,154,-102,-252
19:06:38.221,,4,18,1052,-700,2800,3290,154,-100,-256
19:06:38.239,,2,29,1050,350,3080,3360,145,-99,-244
19:06:38.258,,-4,36,1052,-280,3570,3430,153,-100,-246
19:06:38.277,,-3,32,1054,-1400,3220,3150,154,-99,-255
19:06:38.296,,-2,37,1053,-1260,2660,2660,151,-102,-253
19:06:38.315,,-1,40,1048,-1120,1960,1960,160,-91,-250
19:06:38.333,,4,36,1041,-1330,1190,1120,151,-97,-261
19:06:38.352,,8,38,1044,-910,910,280,154,-102,-253
19:06:38.371,,12,36,1048,-1960,560,-280,154,-96,-262
19:06:38.390,,12,29,1048,-3500,280,-630,154,-94,-258
19:06:38.409,,12,21,1052,-4060,0,-1120,148,-99,-255
19:06:38.427,,10,16,1059,-3360,-140,-1470,151,-103,-250
19:06:38.446,,9,10,1059,-2310,-420,-1750,144,-91,-253
19:06:38.465,,7,4,1064,-1400,-630,-1890,148,-90,-261
19:06:38.484,,7,0,1062,-700,-700,-1820,147,-97,-255
19:06:38.503,,6,-2,1061,70,-420,-1610,153,-94,-253
19:06:38.521,,1,1,1060,490,-70,-1470,145,-94,-252
19:06:38.540,,-7,6,1055,280,280,-1190,154,-105,-249
19:06:38.559,,-11,5,1053,210,210,-980,151,-102,-249
19:06:38.578,,-11,7,1051,490,-210,-980,156,-91,-247
19:06:38.596,,-10,9,1053,420,-210,-910,151,-97,-246
19:06:38.615,,-8,5,1057,-210,70,-560,150,-93,-247
19:06:38.634,,-7,1,1059,-280,490,-210,154,-99,-250
19:06:38.653,,-10,7,1057,280,840,140,154,-93,-246
19:06:38.672,,-9,13,1056,70,980,280,153,-96,-249
19:06:38.690,,-10,15,1049,-490,980,350,151,-100,-255
19:06:38.709,,-9,16,1050,-770,1050,560,142,-102,-261
19:06:38.728,,-8,13,1054,-910,840,840,151,-91,-255
19:06:38.747,,-7,12,1054,0,210,1190,147,-100,-255
19:06:38.766,,-9,21,1052,910,-280,1330,150,-99,-256
19:06:38.784,,-9,22,1056,630,-630,1470,157,-96,-261
19:06:38.803,,-7,21,1064,840,-1050,1680,148,-97,-249
19:06:38.822,,0,22,1070,1820,-1190,1750,150,-88,-256
19:06:38.841,,3,32,1070,1960,-700,1400,153,-94,-250
19:06:38.859,,3,32,1070,1960,-700,1400,153,-96,-253
19:06:38.878,,5,23,1070,350,280,1120,150,-93,-247
19:06:38.897,,7,15,1066,-70,980,840,148,-91,-255
19:06:38.916,,7,16,1064,1120,1680,770,151,-97,-255
19:06:38.935,,5,20,1063,1260,1960,630,151,-102,-249
19:06:38.953,,0,21,1054,700,2030,560,153,-94,-261
19:06:38.972,,-2,23,1053,560,1750,420,151,-97,-256
19:06:38.991,,-1,22,1048,1050,1260,280,147,-97,-258
19:06:39.010,,-5,30,1045,1610,910,0,150,-88,-261
19:06:39.028,,-3,30,1044,1260,490,-420,148,-91,-261
19:06:39.047,,-3,35,1038,910,280,-840,151,-94,-259
19:06:39.066,,-5,34,1036,140,560,-1120,145,-93,-262
19:06:39.085,,-6,30,1038,-1330,560,-1540,145,-93,-262
19:06:39.104,,-10,20,1034,-1540,210,-2030,147,-94,-252
19:06:39.122,,-11,25,1032,-910,-210,-2590,145,-93,-256
19:06:39.141,,-11,20,1034,-1540,-560,-2660,156,-91,-261
19:06:39.160,,-12,9,1037,-2590,-840,-2450,150,-91,-253
19:06:39.179,,-18,6,1044,-1960,-1050,-2030,147,-96,-253
19:06:39.198,,-21,8,1048,-1260,-1330,-1540,151,-87,-261
19:06:39.216,,-22,10,1052,-1260,-1890,-1050,157,-97,-247
19:06:39.235,,-19,10,1057,-1470,-2310,-560,147,-94,-255
19:06:39.254,,-17,13,1057,-1330,-2310,0,148,-93,-255
19:06:39.273,,-16,14,1061,-1330,-2030,490,147,-87,-247
19:06:39.291,,-19,13,1067,-980,-1890,840,147,-100,-256
19:06:39.310,,-22,19,1067,-490,-1890,1260,154,-96,-255
19:06:39.329,,-18,22,1068,-770,-1750,1540,159,-96,-250
19:06:39.348,,-14,17,1071,-1330,-1470,1680,157,-96,-247
19:06:39.367,,-9,16,1076,-1330,-700,1610,148,-100,-247
19:06:39.385,,-4,15,1070,-700,70,1470,157,-87,-264
19:06:39.404,,-1,20,1071,-70,980,1470,150,-99,-255
19:06:39.423,,-1,25,1068,-420,1610,1330,160,-91,-252
19:06:39.442,,0,21,1059,-770,1750,1260,153,-96,-250
19:06:39.461,,0,28,1051,-140,1680,910,154,-102,-253
19:06:39.479,,0,31,1043,140,1400,490,157,-99,-261
19:06:39.498,,2,30,1042,-70,1050,70,154,-97,-259
19:06:39.517,,3,27,1043,-490,840,-420,153,-94,-259
19:06:39.536,,1,25,1041,-840,420,-910,153,-99,-247
19:06:39.554,,0,17,1046,-1050,-140,-1190,157,-97,-258
19:06:39.573,,0,18,1044,-840,-770,-1260,151,-93,-265
19:06:39.592,,0,20,1043,-770,-910,-1190,153,-97,-262
19:06:39.611,,-1,17,1047,-1260,-700,-1120,160,-87,-258
19:06:39.630,,-9,21,1051,-1470,-560,-1260,154,-97,-250
19:06:39.648,,-14,19,1049,-1750,-840,-1470,147,-97,-250
19:06:39.667,,-17,14,1048,-1680,-1400,-1750,147,-96,-253
19:06:39.686,,-16,14,1047,-1120,-1960,-1820,154,-93,-259
19:06:39.705,,-13,7,1047,-1190,-2100,-1470,154,-99,-256
19:06:39.724,,-12,9,1057,-1190,-1890,-1050,150,-93,-255
19:06:39.742,,-12,10,1064,-1540,-1470,-840,154,-96,-250
19:06:39.761,,-14,10,1061,-1610,-1330,-700,150,-96,-262
19:06:39.780,,-15,12,1058,-1120,-1330,-770,151,-93,-253
19:06:39.799,,-11,11,1056,-700,-1400,-910,147,-93,-255
19:06:39.817,,-9,11,1060,-910,-1050,-910,151,-90,-259
19:06:39.836,,-7,9,1062,-1610,-840,-630,153,-96,-253
19:06:39.855,,-8,8,1063,-1540,-840,-210,148,-93,-250
19:06:39.874,,-9,17,1065,-910,-770,0,153,-96,-259
19:06:39.893,,-11,20,1061,-700,-630,-140,154,-100,-259
19:06:39.911,,-10,21,1062,-910,-490,-490,150,-94,-258
19:06:39.930,,-10,14,1061,-770,-560,-770,154,-90,-259
19:06:39.949,,-10,13,1057,-210,-700,-980,153,-96,-255
19:06:39.968,,-8,9,1053,-210,-840,-910,147,-99,-261
19:06:39.986,,-6,8,1049,-140,-700,-910,150,-91,-255
19:06:40.005,,-5,9,1052,-280,-560,-770,154,-93,-247
19:06:40.024,,-6,5,1050,-700,-700,-560,156,-99,-250
19:06:40.043,,-7,5,1052,-490,-1120,-350,154,-99,-255
19:06:40.062,,-4,6,1049,0,-1680,-350,150,-100,-258
19:06:40.080,,-3,10,1054,70,-1750,-420,150,-100,-258
19:06:40.099,,-3,12,1055,-490,-1540,-560,157,-91,-262
19:06:40.118,,-4,8,1055,-1120,-1400,-560,153,-93,-256
19:06:40.137,,-3,11,1054,-840,-1400,-490,148,-100,-249
19:06:40.156,,-1,15,1052,-630,-1400,-420,154,-94,-256
19:06:40.174,,0,15,1054,-770,-1260,-280,154,-96,-246
19:06:40.193,,0,21,1056,-700,-1050,-420,162,-88,-255
19:06:40.212,,0,17,1053,-770,-910,-560,151,-99,-256
19:06:40.231,,0,17,1052,-770,-910,-980,151,-97,-258
19:06:40.249,,-1,9,1051,-840,-1050,-1190,156,-93,-259
19:06:40.268,,0,6,1057,-840,-1330,-1330,159,-99,-250
19:06:40.287,,3,4,1062,-770,-1400,-980,151,-100,-252
19:06:40.306,,7,6,1064,-560,-1260,-560,157,-87,-249
19:06:40.325,,7,17,1069,-280,-490,-490,159,-100,-244
19:06:40.343,,3,23,1068,-1050,280,-630,154,-96,-243
19:06:40.362,,0,17,1066,-1470,560,-840,150,-99,-249
19:06:40.381,,-2,22,1062,-210,420,-1260,156,-102,-253
19:06:40.400,,-5,26,1055,490,70,-1750,154,-100,-249
19:06:40.419,,-6,19,1057,280,-70,-1820,151,-94,-250
19:06:40.437,,-5,15,1059,210,-140,-1750,153,-99,-250
19:06:40.456,,-6,12,1059,630,-280,-1680,154,-97,-250
19:06:40.475,,-8,17,1058,910,-210,-1750,160,-99,-256
19:06:40.494,,-10,16,1057,350,-70,-1750,151,-94,-258
19:06:40.512,,-8,10,1054,-280,140,-1820,154,-99,-252
19:06:40.531,,-7,5,1057,-280,280,-1890,157,-94,-241
19:06:40.550,,-6,-2,1054,0,280,-1750,153,-94,-253
19:06:40.569,,-7,0,1052,280,630,-1050,151,-105,-244
19:06:40.588,,-8,2,1054,70,840,-420,154,-91,-243
19:06:40.606,,-12,7,1047,-70,770,0,157,-90,-252
19:06:40.625,,-16,13,1043,0,350,140,154,-99,-250
19:06:40.644,,-16,13,1043,-70,-140,140,162,-97,-250
19:06:40.663,,-13,13,1040,-70,-140,140,151,-94,-247
19:06:40.681,,-11,17,1041,-280,-210,0,159,-102,-255
19:06:40.700,,-8,13,1045,-980,-280,-70,151,-96,-247
19:06:40.719,,-7,10,1046,-1050,-280,-140,144,-96,-256
19:06:40.738,,-8,11,1047,-1330,-210,-280,154,-96,-262
19:06:40.757,,-7,1,1044,-2380,-560,-280,156,-93,-256
19:06:40.775,,-13,-3,1047,-2380,-1330,140,151,-93,-252
19:06:40.794,,-18,-4,1061,-1470,-2730,1330,157,-94,-258
19:06:40.813,,-12,2,1080,140,-4550,2450,159,-96,-253
19:06:40.832,,3,23,1093,1470,-5390,2800,147,-94,-252
19:06:40.851,,20,28,1107,1400,-4200,2800,156,-88,-259
19:06:40.869,,25,38,1110,1260,-2030,2100,148,-97,-244
19:06:40.888,,16,46,1091,1960,350,1330,159,-103,-246
19:06:40.907,,7,56,1066,3080,2030,210,154,-94,-261
19:06:40.926,,-6,58,1039,3500,3430,-840,141,-91,-258
19:06:40.945,,-12,53,1019,3010,4200,-1960,147,-100,-256
19:06:40.963,,-19,32,1009,1820,3850,-3150,150,-91,-258
19:06:40.982,,-20,8,1011,1260,1820,-4270,147,-96,-256
19:06:41.001,,-16,-10,1019,1610,-1050,-4410,148,-93,-252
19:06:41.020,,-5,-13,1027,2380,-3080,-3640,150,-94,-256
19:06:41.038,,7,-9,1042,2100,-3360,-2310,151,-91,-255
19:06:41.057,,13,-4,1051,910,-2380,-1190,151,-91,-255
19:06:41.076,,11,5,1054,-140,-1050,-840,150,-90,-255
19:06:41.095,,3,15,1051,-1330,70,-1120,148,-93,-250
19:06:41.114,,-4,18,1047,-1960,280,-1610,148,-88,-256
19:06:41.132,,-11,22,1053,-1960,-140,-1960,150,-96,-261
19:06:41.151,,-15,23,1060,-1820,-1260,-2030,156,-97,-259
19:06:41.170,,-15,25,1073,-1260,-2240,-1890,153,-96,-255
19:06:41.189,,-14,30,1082,-560,-2450,-1680,145,-93,-259
19:06:41.207,,-16,32,1086,-630,-1890,-1680,151,-99,-253
19:06:41.226,,-16,30,1088,-140,-1050,-1820,160,-93,-253
19:06:41.245,,-13,28,1082,630,0,-2100,145,-94,-247
19:06:41.264,,-10,22,1074,1050,840,-2310,153,-99,-252
19:06:41.283,,-11,16,1063,770,1750,-2310,148,-99,-252
19:06:41.301,,-12,12,1049,420,2240,-1820,145,-96,-249
19:06:41.320,,-13,8,1039,350,2170,-1190,151,-91,-252
19:06:41.339,,-14,10,1034,630,1750,-700,153,-94,-259
19:06:41.358,,-15,13,1029,630,980,-210,148,-97,-255
19:06:41.377,,-16,17,1031,560,70,350,151,-91,-256
19:06:41.395,,-12,23,1029,280,-630,560,154,-96,-256
19:06:41.414,,-12,23,1031,-350,-910,490,151,-97,-258
19:06:41.433,,-10,18,1043,-910,-1190,280,147,-94,-256
19:06:41.452,,-11,17,1050,-1190,-1400,70,147,-93,-255
19:06:41.471,,-5,13,1058,-1400,-1610,70,150,-93,-253
19:06:41.489,,-1,12,1067,-1610,-1260,350,147,-85,-256
19:06:41.508,,1,19,1069,-1960,-700,560,148,-94,-253
19:06:41.527,,4,22,1066,-1890,0,700,157,-90,-249
19:06:41.539,<gest4_cross_right,,,,,,,,,
19:06:41.546,,2,34,1067,-1680,770,420,153,-96,-243
19:06:41.564,,-2,36,1063,-1890,1050,-70,159,-99,-255
19:06:41.583,,-6,37,1057,-1470,700,-560,157,-96,-246
19:06:41.602,,-7,41,1053,-770,70,-910,162,-102,-246
19:06:41.621,,-7,36,1051,-560,-420,-1190,156,-97,-255
19:06:41.640,,-8,33,1058,-280,-840,-1610,150,-94,-252
19:06:41.658,,-10,29,1060,280,-1330,-2100,151,-99,-256
19:06:41.677,,-11,23,1059,280,-1540,-2380,141,-99,-258
19:06:41.696,,-10,16,1057,280,-1610,-2380,150,-91,-250
19:06:41.715,,-9,12,1054,490,-1400,-2170,159,-96,-252
19:06:41.734,,-9,11,1056,420,-840,-1750,150,-100,-261
19:06:41.752,,-10,8,1059,0,-280,-1400,147,-99,-262
19:06:41.771,,-11,10,1054,-280,140,-1260,150,-97,-255
19:06:41.790,,-14,10,1048,-700,350,-1190,156,-105,-261
19:06:41.809,,-17,7,1044,-1120,70,-910,144,-91,-264
19:06:41.827,,-20,8,1051,-560,-560,-350,147,-99,-255
19:06:41.846,,-17,16,1053,210,-1400,280,144,-85,-261
19:06:41.865,,-16,22,1058,560,-1750,770,145,-94,-262
19:06:41.884,,-10,27,1064,700,-1820,980,147,-85,-252
19:06:41.903,,-7,28,1064,980,-1540,910,145,-93,-258
19:06:41.921,,-4,30,1063,1120,-980,630,157,-93,-258
19:06:41.940,,-6,31,1061,490,-350,420,144,-93,-255
19:06:41.959,,-8,25,1054,-210,-210,280,147,-90,-256
19:06:41.978,,-8,22,1054,140,-490,140,147,-97,-252
19:06:41.997,,-6,19,1055,910,-1050,70,145,-91,-262
19:06:42.015,,-3,17,1056,1680,-1120,280,150,-90,-262
19:06:42.034,,-1,18,1065,1610,-700,490,150,-90,-262
19:06:42.053,,0,16,1059,560,-210,770,139,-93,-258
19:06:42.072,,-2,18,1057,490,140,770,148,-97,-255
19:06:42.090,,-5,22,1049,350,70,490,148,-91,-261
19:06:42.109,,-3,20,1047,280,-420,210,153,-93,-255
19:06:42.128,,-1,20,1046,700,-1120,70,148,-94,-255
19:06:42.147,,0,21,1050,1330,-1610,0,148,-96,-255
19:06:42.166,,1,24,1053,1050,-1750,0,151,-97,-264
19:06:42.184,,2,22,1059,350,-1330,140,147,-94,-253
19:06:42.203,,4,27,1065,140,-770,70,148,-97,-252
19:06:42.222,,3,30,1060,-70,-140,-210,148,-93,-256
19:06:42.241,,3,38,1055,70,490,-560,150,-94,-253
19:06:42.260,,0,43,1051,-350,980,-910,147,-97,-253
19:06:42.278,,0,46,1045,-1120,1050,-1400,150,-97,-258
19:06:42.297,,0,45,1048,-1190,840,-1890,147,-90,-253
19:06:42.316,,0,44,1047,-1260,350,-2520,142,-91,-261
19:06:42.335,,-1,42,1041,-840,70,-2870,154,-96,-252
19:06:42.353,,-8,45,1043,-840,-70,-3220,150,-99,-253
19:06:42.372,,-13,39,1039,-1330,-630,-3360,145,-96,-244
19:06:42.391,,-20,36,1041,-770,-1470,-3500,144,-93,-252
19:06:42.410,,-26,32,1045,-350,-2450,-3500,147,-102,-250
19:06:42.429,,-25,25,1049,-70,-3290,-3010,159,-99,-256
19:06:42.447,,-25,25,1049,-70,-3290,-3010,156,-97,-259
19:06:42.466,,-29,20,1052,280,-3500,-2240,139,-87,-259
19:06:42.485,,-33,17,1058,70,-3500,-1540,150,-96,-250
19:06:42.504,,-32,9,1063,70,-3290,-840,153,-88,-252
19:06:42.523,,-31,8,1068,210,-2940,-280,151,-97,-258
19:06:42.541,,-25,4,1068,-70,-2380,350,147,-93,-253
19:06:42.560,,-19,1,1069,-350,-1540,1050,145,-99,-253
19:06:42.579,,-13,6,1067,-770,-420,1750,142,-99,-255
19:06:42.598,,-8,10,1061,-1190,420,2310,151,-94,-261
19:06:42.616,,-2,15,1058,-1190,980,2520,151,-97,-255
19:06:42.635,,1,23,1050,-1470,1260,2380,153,-94,-259
19:06:42.654,,6,25,1048,-1610,1260,2310,147,-99,-249
19:06:42.673,,11,28,1047,-1540,1050,2100,145,-94,-259
19:06:42.692,,13,37,1045,-1190,700,1890,147,-96,-262
19:06:42.710,,13,41,1044,-1330,280,1470,154,-94,-261
19:06:42.729,,12,41,1046,-1820,-70,910,148,-100,-253
19:06:42.748,,13,38,1051,-1540,-770,420,145,-93,-249
19:06:42.767,,13,39,1056,-1120,-1260,70,148,-100,-256
19:06:42.786,,11,39,1060,-1190,-1400,-140,151,-96,-255
19:06:42.804,,9,38,1064,-1190,-1330,-560,150,-94,-262
19:06:42.823,,4,38,1065,-560,-1190,-910,148,-94,-256
19:06:42.842,,-1,40,1066,70,-910,-1330,145,-96,-259
19:06:42.861,,-5,35,1067,-70,-630,-1610,142,-97,-262
