Sensors' Acquisition [Hz]: Acc@52.0 Gyro@52.0 
hh:mm:ss.ms, Annotation , AccX [mg], AccY, AccZ, GyroX [mdps], GyroY, GyroZ
00:11:55.868,,-195,0,999,-210,2100,2730
00:11:55.887,,-202,-14,1003,-1820,2450,2380
00:11:55.906,,-201,-25,1005,-1750,2380,1890
00:11:55.925,,-189,-24,1010,-280,2240,-770
00:11:55.944,,-205,-15,1019,-770,1890,-2100
00:11:55.963,,-209,-20,1021,-2800,980,-2940
00:11:55.982,,-209,-31,1016,-3430,-70,-3780
00:11:56.000,,-209,-21,1013,-1680,-560,-4690
00:11:56.019,,-218,-3,1011,-1260,-770,-5740
00:11:56.038,,-226,-5,1007,-3430,-770,-6720
00:11:56.057,,-224,-12,1001,-3920,-770,-7630
00:11:56.076,,-226,2,994,-1120,-700,-8400
00:11:56.095,,-230,28,990,560,-210,-8540
00:11:56.114,,-225,37,991,-980,700,-7980
00:11:56.133,,-225,33,995,-2240,1750,-7000
00:11:56.152,,-226,34,997,-490,2310,-5810
00:11:56.170,,-229,42,995,2380,2450,-4200
00:11:56.189,,-226,55,994,3570,2590,-2170
00:11:56.208,,-224,55,997,1610,2730,-210
00:11:56.227,,-226,36,999,-840,2590,1260
00:11:56.246,,-228,24,995,-420,1960,2590
00:11:56.265,,-220,23,986,560,1260,3990
00:11:56.284,,-208,16,976,70,1120,5040
00:11:56.303,,-198,6,975,-770,2100,5320
00:11:56.322,,-199,-4,981,-1050,3570,4970
00:11:56.340,,-204,-12,985,-560,4690,4410
00:11:56.359,,-208,-16,988,280,4970,4200
00:11:56.378,,-201,-12,994,700,5040,3850
00:11:56.397,,-201,-14,1002,-350,5460,3010
00:11:56.416,,-208,-25,1010,-1610,5670,1890
00:11:56.435,,-213,-24,1015,-1190,5320,700
00:11:56.454,,-213,-17,1018,-700,4690,-560
00:11:56.473,,-213,-10,1020,-980,4060,-1680
00:11:56.492,,-219,-4,1025,-1610,3640,-2450
00:11:56.510,,-219,0,1026,-1960,3080,-3220
00:11:56.529,,-218,1,1019,-1540,2100,-3570
00:11:56.548,,-211,7,1011,-350,1400,-3360
00:11:56.567,,-210,16,1008,560,1470,-2800
00:11:56.586,,-224,18,1009,210,1890,-2310
00:11:56.605,,-231,14,1007,-490,1610,-1890
00:11:56.624,,-227,10,999,-490,560,-1540
00:11:56.643,,-217,13,992,140,-140,-1330
00:11:56.662,,-216,17,989,140,140,-1190
00:11:56.680,,-223,12,989,-840,910,-1050
00:11:56.699,,-224,4,986,-1470,1330,-840
00:11:56.718,,-221,3,983,-490,1470,-840
00:11:56.737,,-218,13,986,630,1960,-910
00:11:56.756,,-221,19,995,0,2940,-1260
00:11:56.775,,-224,13,1002,-1400,3570,-1540
00:11:56.794,,-225,10,1003,-980,3220,-1470
00:11:56.813,,-216,20,1003,630,2590,-1050
00:11:56.832,,-215,29,1005,1050,2590,-630
00:11:56.850,,-221,27,1008,70,2730,-70
00:11:56.869,,-222,20,1009,-1050,2380,490
00:11:56.888,,-217,13,1009,-770,1890,840
00:11:56.907,,-216,19,1009,630,1470,980
00:11:56.926,,-217,19,1007,420,1260,1330
00:11:56.945,,-214,11,1004,-700,980,1540
00:11:56.964,,-214,2,1002,-770,910,1400
00:11:56.983,,-217,8,1004,210,910,910
00:11:57.001,,-220,8,1001,-70,840,560
00:11:57.020,,-217,5,995,-490,560,350
00:11:57.039,,-209,6,992,-490,490,140
00:11:57.058,,-208,11,993,-490,840,-490
00:11:57.077,,-212,10,993,-770,1330,-980
00:11:57.096,,-213,11,992,-700,1610,-1050
00:11:57.115,,-209,14,990,-350,1610,-910
00:11:57.134,,-208,19,993,-280,1750,-840
00:11:57.153,,-211,20,996,-700,2170,-770
00:11:57.171,,-215,18,999,-1120,2310,-560
00:11:57.190,,-212,15,1001,-1120,2170,-280
00:11:57.209,,-208,16,1002,-700,1960,-140
00:11:57.228,,-209,17,1002,-490,2030,-70
00:11:57.247,,-218,15,1004,-770,2030,0
00:11:57.266,,-217,12,1003,-1190,1820,70
00:11:57.285,,-205,11,1002,-910,1610,-210
00:11:57.304,,-204,16,1003,-280,1750,-630
00:11:57.323,,-212,17,1008,-350,2240,-770
00:11:57.341,,-218,15,1010,-490,2310,-700
00:11:57.360,,-219,17,1009,-490,1470,-630
00:11:57.379,,-213,19,1003,-840,420,-630
00:11:57.398,,-208,19,995,-1190,-70,-700
00:11:57.417,,-209,19,993,-1330,280,-560
00:11:57.436,,-212,16,990,-1680,840,-350
00:11:57.455,,-210,13,988,-1610,1120,-210
00:11:57.474,,-206,16,988,-1050,1470,-210
00:11:57.493,,-207,19,992,-1050,2030,-280
00:11:57.511,,-213,16,998,-1540,2590,-140
00:11:57.530,,-214,12,1001,-1820,2730,-140
00:11:57.549,,-207,14,1003,-1190,2520,-280
00:11:57.568,,-208,23,1004,-700,2310,-350
00:11:57.587,,-211,22,1004,-1540,2240,-210
00:11:57.606,,-213,15,1004,-2380,1960,70
00:11:57.625,,-209,12,1001,-1820,1680,350
00:11:57.644,,-203,17,999,-700,1680,350
00:11:57.663,,-204,18,1000,-700,2170,140
00:11:57.681,,-209,16,1003,-1260,2660,140
00:11:57.700,,-212,12,1005,-1470,2590,280
00:11:57.719,,-211,11,1001,-1400,1960,350
00:11:57.738,,-206,10,996,-1190,1540,350
00:11:57.757,,-203,10,993,-1190,1750,140
00:11:57.776,,-205,6,992,-1330,2450,0
00:11:57.795,,-208,6,995,-1120,3010,-70
00:11:57.814,,-208,7,999,-1050,3150,-420
00:11:57.832,,-211,11,1001,-1120,3010,-840
00:11:57.851,,-215,11,1002,-1540,2800,-1120
00:11:57.870,,-211,12,1002,-1890,2590,-1190
00:11:57.889,,-207,10,1001,-1820,2520,-1050
00:11:57.908,,-205,16,1002,-1190,2660,-980
00:11:57.927,,-214,16,1004,-1330,2800,-980
00:11:57.946,,-212,14,1006,-1680,2800,-770
00:11:57.965,,-209,14,1010,-1400,2800,-560
00:11:57.984,,-215,17,1014,-1050,2660,-490
00:11:58.002,,-218,11,1010,-1400,2030,-280
00:11:58.021,,-216,8,1005,-1330,1260,0
00:11:58.040,,-209,12,1000,-980,1120,0
00:11:58.059,,-211,10,999,-1330,1540,-210
00:11:58.078,,-210,6,998,-1400,1960,-490
00:11:58.097,,-212,8,1001,-630,2380,-700
00:11:58.116,,-215,16,1005,140,2660,-1050
00:11:58.135,,-219,20,1008,-280,2310,-1050
00:11:58.154,,-218,15,1004,-1610,1470,-630
00:11:58.172,,-213,11,999,-2100,630,-210
00:11:58.191,,-209,13,996,-1540,560,0
00:11:58.210,,-212,13,994,-1330,980,140
00:11:58.229,,-213,8,992,-1610,1540,210
00:11:58.248,,-213,6,992,-1540,1820,420
00:11:58.267,,-213,6,995,-1400,2100,210
00:11:58.286,,-214,5,995,-1260,2520,-280
00:11:58.305,,-211,10,998,-910,2870,-560
00:11:58.324,,-209,12,999,-1120,3010,-560
00:11:58.342,,-211,9,1000,-1400,2940,-490
00:11:58.361,,-213,10,1000,-980,2870,-420
00:11:58.380,,-211,12,995,-630,2660,-490
00:11:58.399,,-206,11,995,-770,2730,-420
00:11:58.418,,-199,13,999,-700,3570,-560
00:11:58.437,,-213,15,1010,-630,4410,-840
00:11:58.456,,-222,13,1018,-910,4340,-630
00:11:58.475,,-220,8,1021,-910,3080,-280
00:11:58.494,,-218,13,1013,-490,1330,140
00:11:58.512,,-208,16,1000,-1820,-140,560
00:11:58.531,,-194,3,994,-3290,1190,-140
00:11:58.550,,-205,3,1001,-910,2800,-1120
00:11:58.569,,-212,15,1006,280,3360,-1750
00:11:58.588,,-208,16,1008,-630,2940,-1750
00:11:58.607,,-207,10,1009,-1120,2590,-1540
00:11:58.626,,-215,12,1011,-140,2520,-1190
00:11:58.645,,-222,18,1012,350,2240,-770
00:11:58.663,,-219,14,1010,-630,1470,-560
00:11:58.682,,-216,7,1003,-1190,560,-700
00:11:58.701,,-215,8,998,-840,140,-840
00:11:58.720,,-213,11,993,-1120,210,-980
00:11:58.739,,-206,8,991,-1680,630,-1050
00:11:58.758,,-203,10,993,-1540,1120,-1120
00:11:58.777,,-204,12,997,-1400,1470,-980
00:11:58.796,,-211,7,996,-1680,1610,-490
00:11:58.815,,-210,3,994,-1260,1540,-70
00:11:58.833,,-202,10,994,-560,1610,-140
00:11:58.852,,-206,8,996,-840,2240,-560
00:11:58.871,,-215,5,1000,-1120,2940,-910
00:11:58.873,>gest3_circle_cw,,,,,,
00:11:58.890,,-219,5,1005,-770,3080,-1190
00:11:58.909,,-218,10,1009,-490,2590,-1470
00:11:58.928,,-214,18,1012,-560,2100,-1680
00:11:58.947,,-217,20,1014,-1610,1610,-1750
00:11:58.966,,-220,14,1008,-2450,1120,-1260
00:11:58.985,,-215,12,1000,-1890,560,-350
00:11:59.003,,-206,16,998,-840,420,210
00:11:59.022,,-206,20,999,-560,1120,280
00:11:59.041,,-209,11,1001,-1260,1820,280
00:11:59.060,,-214,3,1001,-980,2100,630
00:11:59.079,,-210,8,1001,0,1960,770
00:11:59.098,,-207,13,1003,140,1890,560
00:11:59.117,,-209,11,1003,-840,1820,210
00:11:59.136,,-209,4,999,-1610,1540,0
00:11:59.155,,-203,1,994,-1260,1330,70
00:11:59.173,,-199,10,995,-280,1820,-210
00:11:59.192,,-205,15,1002,-350,2590,-560
00:11:59.211,,-207,9,1005,-1120,2940,-630
00:11:59.230,,-206,7,1008,-840,2660,-420
00:11:59.249,,-205,13,1009,-210,2100,-280
00:11:59.268,,-207,17,1011,-490,1820,-350
00:11:59.287,,-211,9,1009,-1400,1540,-490
00:11:59.306,,-207,4,1004,-1190,1120,-280
00:11:59.324,,-198,7,1003,-140,1120,-280
00:11:59.343,,-198,15,1008,490,1750,-630
00:11:59.362,,-209,11,1013,-210,2310,-910
00:11:59.381,,-212,4,1015,-350,1890,-700
00:11:59.400,,-210,5,1013,490,910,-700
00:11:59.419,,-208,21,1010,1050,210,-980
00:11:59.438,,-211,19,1004,-1050,-280,-1190
00:11:59.457,,-202,1,995,-2730,-560,-1050
00:11:59.476,,-192,2,993,-630,-140,-1050
00:11:59.494,,-199,23,997,1540,980,-1190
00:11:59.513,,-203,22,1005,-140,1750,-1050
00:11:59.532,,-203,2,1006,-1680,1610,-840
00:11:59.551,,-206,1,1002,70,770,-700
00:11:59.570,,-210,12,992,1190,0,-630
00:11:59.589,,-206,14,984,-490,-140,-770
00:11:59.608,,-196,9,982,-2380,770,-1470
00:11:59.627,,-201,6,977,-2170,1540,-2380
00:11:59.646,,-201,11,970,-490,2030,-2590
00:11:59.664,,-201,22,966,630,3010,-2380
00:11:59.683,,-211,26,963,350,4340,-1960
00:11:59.702,,-218,25,959,-420,5320,-1470
00:11:59.721,,-228,34,953,-910,5950,-980
00:11:59.740,,-254,61,950,-2100,6370,-980
00:11:59.759,,-300,88,947,-5250,6720,-1680
00:11:59.778,,-314,121,925,-7490,7000,-2380
00:11:59.797,,-306,181,891,-7980,6930,-2170
00:11:59.816,,-288,242,857,-7840,8680,-1610
00:11:59.834,,-277,292,842,-6090,13930,1120
00:11:59.853,,-255,323,862,-3640,21840,9310
00:11:59.872,,-238,321,908,3360,31570,22400
00:11:59.891,,-267,402,990,17150,42000,37730
00:11:59.910,,-340,534,1131,18340,48930,55160
00:11:59.929,,-379,478,1286,-910,47250,74270
00:11:59.948,,-383,303,1434,-11900,38080,94500
00:11:59.967,,-420,163,1556,420,24430,112630
00:11:59.986,,-436,102,1655,13580,8610,126560
00:12:00.004,,-410,-111,1702,8820,-8960,133490
00:12:00.023,,-380,-387,1713,9450,-29120,129780
00:12:00.042,,-368,-503,1682,27930,-50610,112630
00:12:00.061,,-379,-483,1598,37590,-72240,86100
00:12:00.080,,-318,-540,1456,26040,-91980,56140
00:12:00.099,,-234,-571,1286,22750,-106610,25550
00:12:00.118,,-204,-473,1127,34370,-115920,-1680
00:12:00.137,,-161,-346,979,41160,-120960,-22330
00:12:00.156,,-97,-268,846,38080,-122360,-36680
00:12:00.174,,-38,-259,736,33530,-119770,-46130
00:12:00.193,,-33,-251,635,36890,-113610,-53970
00:12:00.212,,-29,-165,555,44800,-106470,-63140
00:12:00.231,,-12,-29,501,42350,-98560,-74410
00:12:00.250,,-18,40,448,21630,-89250,-85540
00:12:00.269,,-6,47,398,-2310,-77840,-95550
00:12:00.288,,29,125,383,-15540,-64050,-105980
00:12:00.307,,25,234,395,-27790,-49280,-116130
00:12:00.325,,10,259,400,-45780,-34510,-120610
00:12:00.344,,24,217,393,-55090,-19320,-117180
00:12:00.363,,63,296,418,-47320,-3500,-108570
00:12:00.382,,64,435,474,-43120,13230,-99820
00:12:00.401,,32,428,507,-53340,30030,-89740
00:12:00.420,,8,322,523,-56280,47180,-74550
00:12:00.439,,15,430,609,-42350,65940,-58730
00:12:00.458,,-68,528,728,-42420,83160,-47390
00:12:00.477,,-190,435,809,-58450,94710,-36330
00:12:00.496,,-222,271,871,-56770,102060,-23590
00:12:00.514,,-223,414,1015,-28280,108220,-15610
00:12:00.533,,-357,605,1187,-21630,107870,-11690
00:12:00.552,,-468,600,1292,-52850,96250,-3290
00:12:00.571,,-374,381,1323,-81270,78820,11130
00:12:00.590,,-305,313,1356,-66080,65380,24990
00:12:00.609,,-307,423,1403,-36470,56070,35700
00:12:00.628,,-302,456,1458,-34020,47250,46060
00:12:00.647,,-264,265,1464,-45290,39130,58660
00:12:00.666,,-259,129,1431,-30520,31500,71190
00:12:00.684,,-315,127,1375,-4830,22610,82180
00:12:00.703,,-361,91,1292,2030,10920,89250
00:12:00.722,,-317,-27,1198,-5670,-1470,90720
00:12:00.741,,-247,-156,1110,-9170,-8050,87780
00:12:00.760,,-218,-188,1054,-3360,-8540,81200
00:12:00.779,,-240,-179,1035,-3500,-7420,70980
00:12:00.798,,-240,-249,1023,-14560,-8680,58100
00:12:00.817,,-197,-337,992,-20230,-11060,43750
00:12:00.836,,-164,-307,969,-12110,-11830,28910
00:12:00.854,,-157,-156,980,-9100,-11130,14350
00:12:00.873,,-162,-115,986,-27440,-10990,1400
00:12:00.892,,-153,-199,958,-42420,-11970,-7700
00:12:00.911,,-152,-192,931,-31850,-13020,-12250
00:12:00.930,,-133,-72,927,-14420,-12530,-13300
00:12:00.949,,-102,33,944,-14140,-9660,-13860
00:12:00.968,,-129,-33,943,-26040,-5320,-14140
00:12:00.987,,-155,-105,928,-20650,-1400,-13510
00:12:01.020,,-141,80,982,9310,5250,-12180
00:12:01.024,,-141,80,982,9310,5250,-12180
00:12:01.043,,-178,64,1012,-2870,8610,-12250
00:12:01.062,,-202,-12,1015,-10710,9100,-10990
00:12:01.081,,-192,-20,1015,-2660,7420,-7980
00:12:01.100,,-168,40,1037,6510,6230,-5320
00:12:01.119,,-188,51,1048,-3080,4340,-3430
00:12:01.138,,-187,-21,1018,-3710,2940,-2030
00:12:01.157,,-166,-23,1007,2380,3150,-1470
00:12:01.176,,-176,27,1017,6930,4410,-2240
00:12:01.194,,-200,19,1022,1610,5110,-3080
00:12:01.213,,-193,-14,1020,-3220,4760,-3150
00:12:01.232,,-186,-18,1016,-210,3780,-3150
00:12:01.251,,-185,21,1018,4060,2800,-2800
00:12:01.270,,-191,28,1015,490,1750,-1890
00:12:01.289,,-192,-2,1009,-5460,350,-770
00:12:01.308,,-171,-26,998,-6230,-700,-140
00:12:01.327,,-160,-22,990,-1960,-70,-280
00:12:01.346,,-170,-2,987,1610,1610,-560
00:12:01.364,,-179,0,993,70,3220,-420
00:12:01.383,,-171,-20,1004,-2450,4480,-420
00:12:01.402,,-180,-29,1008,-350,5040,-1050
00:12:01.421,,-186,-3,1011,3640,4760,-1750
00:12:01.440,,-180,18,1020,2450,4340,-1890
00:12:01.459,,-171,0,1029,-1610,4410,-1960
00:12:01.478,,-188,-17,1034,-840,3780,-1960
00:12:01.497,,-191,0,1025,2660,2030,-1260
00:12:01.516,,-172,12,1016,2170,700,0
00:12:01.534,,-160,0,1013,-840,840,560
00:12:01.553,,-173,-10,1018,-1330,1680,210
00:12:01.572,,-184,-9,1017,280,1680,-140
00:12:01.591,,-185,-9,1006,770,910,0
00:12:01.610,,-170,-11,997,350,350,210
00:12:01.629,,-166,-10,997,280,980,-350
00:12:01.648,,-177,-9,1003,0,1960,-1050
00:12:01.667,,-184,-17,999,-630,2310,-1610
00:12:01.685,,-179,-14,991,0,1820,-1960
00:12:01.704,,-165,1,994,280,1820,-2520
00:12:01.723,,-171,0,1000,-840,2870,-3150
00:12:01.742,,-188,-8,1003,-840,3500,-3360
00:12:01.761,,-184,-3,1002,1190,3360,-3150
00:12:01.780,,-181,12,1001,2310,3080,-2800
00:12:01.796,<gest3_circle_cw,,,,,,
00:12:01.799,,-173,17,1006,1050,3500,-2590
00:12:01.818,,-181,10,1012,-70,4130,-2660
00:12:01.837,,-193,5,1012,770,3990,-2380
00:12:01.855,,-189,8,1006,2170,3150,-1470
00:12:01.874,,-175,14,1006,2310,2940,-700
00:12:01.893,,-182,14,1011,1610,3360,-560
00:12:01.912,,-198,5,1009,700,3360,-560
00:12:01.931,,-191,3,1003,280,2660,-420
00:12:01.950,,-179,1,999,490,2590,-490
00:12:01.969,,-175,9,1004,1400,3360,-910
00:12:01.988,,-191,14,1012,1260,4130,-1190
00:12:02.007,,-198,7,1011,0,3850,-1120
00:12:02.025,,-191,2,1005,0,2590,-910
00:12:02.044,,-182,8,1002,1330,2030,-840
00:12:02.063,,-183,18,1005,1540,2380,-840
00:12:02.082,,-189,12,1008,-280,2800,-770
00:12:02.101,,-192,-1,1006,-1260,2660,-700
00:12:02.120,,-189,-2,1002,350,2100,-560
00:12:02.139,,-184,10,1003,1960,2170,-560
00:12:02.158,,-191,13,1006,1190,2800,-840
00:12:02.177,,-199,4,1005,-280,3010,-1260
00:12:02.195,,-189,2,1001,-140,2660,-1470
00:12:02.214,,-182,11,1002,910,2660,-1750
00:12:02.233,,-183,25,1010,1260,3290,-1960
00:12:02.252,,-195,21,1015,0,3500,-1890
00:12:02.271,,-200,12,1010,-490,2660,-1260
00:12:02.290,,-190,13,1002,280,1610,-560
00:12:02.309,,-179,19,1001,840,1540,-280
00:12:02.328,,-183,20,1007,140,2380,-700
00:12:02.347,,-192,11,1010,-350,2940,-1050
00:12:02.365,,-195,11,1007,420,2520,-1120
00:12:02.384,,-189,14,1005,1190,1890,-910
00:12:02.403,,-188,18,1005,1330,1890,-910
00:12:02.422,,-194,18,1005,770,2170,-1050
00:12:02.441,,-192,13,1000,-140,2100,-1190
00:12:02.460,,-182,12,996,70,1960,-1400
00:12:02.479,,-179,18,997,1190,2520,-1820
00:12:02.498,,-190,25,1002,1680,3290,-1890
00:12:02.517,,-197,24,1007,700,3570,-1750
00:12:02.535,,-193,24,1011,-140,3010,-1750
00:12:02.554,,-189,28,1012,0,2240,-1890
00:12:02.573,,-190,32,1012,70,1960,-1680
00:12:02.592,,-193,30,1013,-210,1890,-1050
00:12:02.611,,-190,27,1014,-350,1610,-420
00:12:02.630,,-186,28,1013,70,1190,-280
00:12:02.649,,-192,30,1011,490,910,-280
00:12:02.668,,-190,27,1004,560,560,210
00:12:02.687,,-188,25,999,350,350,840
00:12:02.705,,-183,21,998,0,700,1260
00:12:02.724,,-189,22,1000,-70,1260,840
00:12:02.743,,-189,21,996,-210,1330,210
00:12:02.762,,-180,20,991,-140,1120,-140
