Sensors' Acquisition [Hz]: Acc@52.0 Gyro@52.0 Mag@52.0 
hh:mm:ss.ms, Annotation , AccX [mg], AccY, AccZ, GyroX [mdps], GyroY, GyroZ, MagX [mgauss], MagY, MagZ
20:57:05.376,,-98,-97,1059,1050,-1820,-840,282,-130,-373
20:57:05.395,,-97,-94,1052,1120,-1190,-910,282,-132,-366
20:57:05.414,,-97,-96,1049,560,-560,-1190,291,-129,-366
20:57:05.433,,-97,-104,1039,-70,-490,-1400,280,-133,-366
20:57:05.451,,-97,-104,1037,280,-910,-1190,289,-127,-364
20:57:05.470,,-98,-98,1037,490,-1540,-700,277,-129,-369
20:57:05.489,,-96,-96,1041,350,-1960,-420,288,-126,-357
20:57:05.508,,-98,-88,1046,420,-2030,-490,286,-129,-363
20:57:05.527,,-101,-83,1050,70,-1820,-840,292,-132,-369
20:57:05.545,,-102,-89,1054,-420,-1680,-1190,282,-130,-367
20:57:05.564,,-101,-92,1059,-280,-1610,-1400,289,-135,-367
20:57:05.583,,-100,-92,1059,0,-1540,-1540,286,-136,-367
20:57:05.602,,-104,-91,1062,-70,-1260,-1470,289,-138,-369
20:57:05.620,,-104,-92,1061,140,-1190,-1260,289,-132,-372
20:57:05.639,,-102,-85,1056,630,-1050,-1120,294,-133,-370
20:57:05.658,,-105,-87,1055,490,-770,-1190,288,-138,-366
20:57:05.677,,-105,-91,1053,280,-630,-1260,285,-139,-370
20:57:05.696,,-104,-93,1048,490,-630,-1190,294,-135,-373
20:57:05.714,,-101,-94,1050,910,-770,-1050,285,-136,-367
20:57:05.733,,-102,-94,1045,700,-630,-980,286,-130,-367
20:57:05.752,,-102,-93,1041,420,-560,-1050,283,-135,-369
20:57:05.771,,-102,-95,1042,140,-630,-980,283,-130,-367
20:57:05.790,,-101,-95,1045,70,-700,-770,283,-136,-367
20:57:05.808,,-100,-95,1043,-70,-700,-630,289,-132,-370
20:57:05.827,,-100,-95,1044,-70,-700,-560,294,-136,-366
20:57:05.846,,-102,-93,1045,-210,-770,-630,288,-124,-367
20:57:05.865,,-106,-93,1046,-420,-840,-490,282,-129,-357
20:57:05.884,,-104,-92,1050,-560,-980,-210,292,-138,-375
20:57:05.902,,-103,-89,1048,-350,-910,-70,285,-123,-369
20:57:05.921,,-101,-86,1048,-210,-770,-210,279,-136,-369
20:57:05.940,,-102,-88,1048,-700,-560,-420,289,-130,-369
20:57:05.959,,-101,-96,1047,-1190,-630,-560,289,-130,-369
20:57:05.977,,-101,-97,1052,-770,-770,-490,286,-127,-363
20:57:05.996,,-100,-96,1050,-490,-840,-210,283,-136,-367
20:57:06.015,,-97,-92,1051,-490,-840,70,277,-129,-369
20:57:06.034,,-96,-89,1051,-840,-560,70,286,-130,-367
20:57:06.053,,-97,-91,1047,-1330,-140,-210,280,-126,-369
20:57:06.071,,-97,-93,1044,-1260,0,-350,291,-133,-361
20:57:06.090,,-97,-94,1042,-1050,-210,-420,286,-132,-366
20:57:06.109,,-98,-93,1042,-980,-630,-420,286,-136,-378
20:57:06.128,,-96,-90,1044,-1050,-1120,-350,279,-130,-367
20:57:06.147,,-95,-88,1045,-910,-1260,-490,288,-126,-363
20:57:06.165,,-95,-87,1044,-840,-1330,-980,289,-129,-376
20:57:06.184,,-96,-89,1047,-910,-1400,-1330,286,-121,-363
20:57:06.203,,-96,-91,1048,-1260,-1540,-1680,286,-135,-363
20:57:06.222,,-95,-94,1050,-1470,-1890,-1610,282,-136,-373
20:57:06.226,>gest8_up,,,,,,,,,
20:57:06.241,,-95,-95,1052,-1190,-2170,-1470,283,-129,-366
20:57:06.259,,-97,-91,1051,-560,-2310,-1400,280,-132,-367
20:57:06.278,,-98,-90,1049,-700,-2450,-1470,285,-132,-373
20:57:06.297,,-98,-96,1044,-1260,-2590,-1610,280,-135,-370
20:57:06.316,,-97,-106,1037,-1470,-3010,-1470,283,-124,-367
20:57:06.335,,-96,-111,1032,-1400,-3710,-1260,285,-133,-366
20:57:06.353,,-95,-112,1027,-1260,-4620,-700,286,-136,-366
20:57:06.372,,-89,-109,1023,-1400,-5530,-280,283,-133,-366
20:57:06.391,,-87,-107,1027,-1890,-6090,-140,285,-135,-363
20:57:06.410,,-87,-107,1028,-2590,-6300,-140,285,-138,-366
20:57:06.428,,-89,-105,1025,-3360,-6440,-140,295,-130,-358
20:57:06.447,,-92,-107,1020,-4270,-6860,-350,285,-139,-369
20:57:06.466,,-93,-106,1016,-5040,-7630,-350,291,-139,-364
20:57:06.485,,-93,-106,1012,-5740,-9030,-210,288,-141,-370
20:57:06.504,,-96,-104,1011,-6230,-10710,-210,289,-133,-366
20:57:06.522,,-99,-95,1012,-6020,-12880,-140,289,-142,-364
20:57:06.541,,-99,-80,1005,-5880,-15330,-630,294,-142,-357
20:57:06.560,,-100,-63,995,-6860,-17780,-1820,300,-145,-360
20:57:06.579,,-102,-68,1002,-8960,-20790,-3570,294,-144,-361
20:57:06.598,,-100,-95,1036,-9520,-24570,-5180,294,-154,-348
20:57:06.616,,-93,-127,1092,-7070,-28840,-5460,294,-160,-351
20:57:06.635,,-82,-136,1171,-2100,-32830,-3920,292,-160,-346
20:57:06.654,,-56,-122,1273,2310,-35490,-770,295,-162,-345
20:57:06.673,,-35,-105,1408,4550,-35070,3150,295,-159,-343
20:57:06.692,,-16,-79,1569,7490,-31990,7770,295,-169,-337
20:57:06.710,,26,-44,1717,9800,-26880,13510,291,-172,-339
20:57:06.729,,81,-52,1863,10220,-16730,18550,298,-177,-333
20:57:06.748,,112,-97,1952,16100,-350,22540,307,-172,-331
20:57:06.767,,134,-93,1943,30450,19320,25270,298,-166,-336
20:57:06.786,,157,-60,1865,44310,41160,24780,291,-169,-343
20:57:06.804,,157,-61,1781,49630,64540,21420,288,-144,-354
20:57:06.823,,133,-93,1698,51590,86450,19670,283,-139,-358
20:57:06.842,,102,-126,1610,54950,105070,19810,270,-121,-364
20:57:06.861,,102,-126,1610,60830,119560,20160,264,-108,-379
20:57:06.880,,90,-154,1507,60830,119560,20160,262,-94,-385
20:57:06.898,,84,-172,1393,67900,132860,20300,253,-69,-411
20:57:06.917,,56,-163,1266,74200,146580,20720,237,-45,-423
20:57:06.936,,14,-124,1183,75320,159180,20230,237,-21,-432
20:57:06.955,,-19,-134,1031,66990,169610,19880,237,-21,-432
20:57:06.973,,-58,-143,840,53690,176820,20370,223,3,-427
20:57:06.992,,-119,-135,685,41300,180110,23870,214,31,-438
20:57:07.011,,-177,-176,511,35560,176050,29400,205,57,-441
20:57:07.030,,-220,-207,331,45150,165410,34790,207,85,-442
20:57:07.049,,-264,-150,220,69930,150640,39410,189,106,-435
20:57:07.067,,-316,-20,123,89110,131600,42560,181,133,-438
20:57:07.086,,-345,106,48,87570,109970,41860,160,147,-442
20:57:07.105,,-382,230,3,65940,89320,39690,154,160,-447
20:57:07.124,,-400,263,-19,36890,67340,38290,145,174,-442
20:57:07.143,,-407,237,-8,19950,47110,36330,153,177,-438
20:57:07.161,,-418,225,-5,15540,29400,32270,142,177,-439
20:57:07.180,,-416,281,-4,15400,13580,24780,141,181,-435
20:57:07.199,,-431,390,38,14280,1400,15540,138,180,-438
20:57:07.218,,-423,406,11,1680,-10360,5530,133,183,-433
20:57:07.237,,-419,412,16,-19250,-20440,-6860,145,171,-436
20:57:07.255,,-439,377,50,-40810,-27930,-18200,153,171,-439
20:57:07.274,,-426,294,94,-57330,-36680,-29470,160,168,-441
20:57:07.293,,-422,247,150,-64190,-44100,-39760,171,162,-447
20:57:07.312,,-425,208,187,-71750,-52220,-49910,192,148,-442
20:57:07.331,,-416,173,225,-84140,-62020,-60270,204,136,-436
20:57:07.349,,-416,116,289,-98630,-72240,-70070,222,118,-438
20:57:07.368,,-438,-5,404,-108710,-83580,-77490,237,103,-436
20:57:07.387,,-459,-118,591,-104160,-97580,-82740,244,81,-432
20:57:07.406,,-440,-196,744,-84630,-114380,-84980,253,63,-438
20:57:07.424,,-420,-247,860,-54740,-129920,-82530,261,51,-426
20:57:07.443,,-407,-217,965,-22120,-143850,-76160,261,19,-429
20:57:07.462,,-341,-174,1144,1400,-158690,-67690,259,-9,-412
20:57:07.481,,-279,-97,1354,11200,-164990,-56910,259,-30,-423
20:57:07.500,,-233,-67,1543,840,-160650,-46760,258,-54,-420
20:57:07.518,,-185,-91,1682,-12740,-150990,-37240,258,-78,-402
20:57:07.537,,-97,-151,1735,-20300,-138040,-28420,264,-94,-402
20:57:07.556,,-55,-110,1758,-21420,-117460,-20790,265,-108,-388
20:57:07.575,,-42,-70,1712,-24220,-94850,-14910,256,-115,-381
20:57:07.594,,-52,-32,1638,-32410,-71820,-12110,267,-129,-378
20:57:07.612,,-86,-46,1557,-43190,-50610,-10360,274,-135,-372
20:57:07.631,,-133,-112,1471,-48370,-35000,-8610,270,-145,-366
20:57:07.650,,-138,-136,1397,-42140,-27370,-6440,291,-142,-358
20:57:07.669,,-140,-127,1334,-30520,-22750,-2940,282,-148,-354
20:57:07.688,,-126,-103,1285,-19950,-19670,-210,294,-154,-357
20:57:07.706,,-114,-100,1259,-13370,-16310,980,292,-154,-360
20:57:07.725,,-95,-107,1243,-8960,-12950,1190,289,-142,-363
20:57:07.744,,-75,-127,1218,-5110,-8610,910,292,-148,-357
20:57:07.763,,-67,-147,1187,-560,-2800,1260,291,-150,-363
20:57:07.782,,-76,-137,1152,2380,2870,2940,286,-147,-355
20:57:07.800,,-79,-139,1115,1260,6370,5040,289,-142,-366
20:57:07.819,,-79,-150,1076,-980,8330,7140,292,-142,-358
20:57:07.838,,-85,-151,1042,-2450,9450,8960,300,-148,-358
20:57:07.857,,-93,-141,1015,-3570,9520,10360,300,-141,-367
20:57:07.875,,-99,-146,1006,-4760,8400,11060,306,-136,-366
20:57:07.894,,-101,-157,1000,-4900,6650,10850,294,-141,-360
20:57:07.913,,-111,-148,999,-3290,4830,10850,297,-136,-364
20:57:07.932,,-117,-131,1008,-2030,2450,11060,304,-138,-360
20:57:07.951,,-116,-123,1027,-2170,280,10920,297,-132,-366
20:57:07.969,,-111,-125,1037,-2800,-1260,10570,297,-132,-366
20:57:07.988,,-103,-127,1045,-2380,-1890,9590,306,-138,-369
20:57:08.007,,-98,-116,1050,-2240,-1330,8050,316,-136,-369
20:57:08.026,,-93,-118,1046,-4130,-490,6230,303,-132,-361
20:57:08.045,,-88,-137,1042,-6370,-140,4480,312,-135,-361
20:57:08.063,,-84,-151,1039,-6790,-700,3220,303,-126,-357
20:57:08.082,,-75,-158,1049,-5390,-1820,2310,303,-129,-354
20:57:08.101,,-66,-153,1060,-4550,-2310,1470,315,-135,-346
20:57:08.120,,-59,-153,1064,-4690,-2450,700,310,-130,-354
20:57:08.139,,-58,-154,1067,-4550,-2520,70,313,-133,-354
20:57:08.157,,-59,-153,1072,-4130,-2310,-350,325,-130,-349
20:57:08.176,,-58,-153,1077,-2870,-2380,-490,318,-129,-342
20:57:08.195,,-59,-147,1080,-1890,-1960,-770,309,-133,-358
20:57:08.214,,-58,-146,1082,-1960,-1120,-1330,315,-130,-357
20:57:08.233,,-62,-156,1083,-2310,-140,-1680,315,-138,-361
20:57:08.251,,-67,-169,1077,-1190,350,-1610,319,-132,-354
20:57:08.270,,-74,-161,1067,910,840,-1050,312,-129,-360
20:57:08.289,,-80,-152,1058,1260,1190,-700,301,-130,-360
20:57:08.308,,-88,-155,1049,490,1260,-560,303,-135,-363
20:57:08.327,,-95,-161,1041,350,1120,-630,313,-130,-355
20:57:08.345,,-101,-157,1030,1540,560,-560,307,-136,-363
20:57:08.364,,-102,-148,1033,2170,350,-560,318,-124,-364
20:57:08.383,,-105,-152,1034,980,490,-840,315,-132,-358
20:57:08.402,,-105,-156,1034,280,420,-1190,307,-132,-358
20:57:08.420,,-107,-157,1030,630,490,-1260,318,-138,-357
20:57:08.439,,-104,-152,1032,840,280,-1330,309,-127,-357
20:57:08.458,,-107,-148,1033,-140,840,-1260,309,-138,-361
20:57:08.477,,-107,-152,1034,-1400,1050,-1050,310,-135,-355
20:57:08.496,,-109,-156,1036,-1680,1120,-770,310,-133,-354
20:57:08.514,,-107,-152,1031,-1190,1190,-770,312,-138,-358
20:57:08.533,,-110,-149,1027,-1050,1190,-770,309,-135,-357
20:57:08.552,,-110,-152,1033,-1120,840,-770,313,-132,-355
20:57:08.571,,-110,-153,1037,-1400,490,-840,315,-135,-355
20:57:08.590,,-105,-154,1037,-1610,70,-980,319,-130,-363
20:57:08.608,,-104,-160,1042,-1610,-140,-980,310,-127,-363
20:57:08.627,,-101,-158,1041,-980,-210,-910,303,-118,-363
20:57:08.629,<gest8_up,,,,,,,,,
20:57:08.646,,-102,-157,1042,-490,-210,-770,310,-132,-360
20:57:08.665,,-102,-157,1042,-490,-210,-770,313,-127,-367
20:57:08.684,,-103,-152,1042,-350,-140,-630,309,-124,-364
20:57:08.702,,-104,-152,1045,-560,-140,-490,318,-130,-361
20:57:08.721,,-101,-149,1046,-770,-70,-420,310,-124,-369
20:57:08.740,,-102,-147,1046,-980,140,-490,307,-124,-366
20:57:08.759,,-103,-147,1042,-1330,280,-700,312,-124,-364
20:57:08.778,,-104,-151,1042,-980,0,-770,312,-127,-361
20:57:08.796,,-107,-153,1041,-140,-210,-910,313,-132,-363
20:57:08.815,,-109,-148,1038,700,-560,-980,312,-130,-357
20:57:08.834,,-110,-150,1040,630,-980,-980,309,-132,-361
20:57:08.853,,-106,-152,1041,630,-1400,-980,306,-135,-364
20:57:08.872,,-107,-149,1045,560,-1190,-910,312,-133,-358
20:57:08.890,,-104,-153,1044,420,-1190,-980,306,-126,-358
20:57:08.909,,-106,-150,1043,490,-980,-1120,307,-126,-357
20:57:08.928,,-106,-153,1040,560,-840,-1260,303,-121,-360
20:57:08.947,,-105,-157,1042,700,-1120,-1260,312,-124,-361
20:57:08.966,,-105,-156,1042,560,-1050,-1190,306,-123,-360
20:57:08.984,,-101,-155,1047,280,-1260,-1050,306,-123,-360
20:57:09.003,,-103,-152,1053,-420,-700,-840,309,-129,-363
20:57:09.022,,-103,-156,1043,-490,-560,-630,309,-124,-358
20:57:09.041,,-102,-152,1050,560,-350,-420,304,-132,-361
20:57:09.059,,-107,-146,1050,770,280,-490,313,-124,-361
20:57:09.078,,-107,-149,1044,280,210,-560,307,-132,-366
20:57:09.097,,-109,-150,1046,-140,420,-630,303,-124,-361
20:57:09.116,,-112,-152,1042,70,350,-420,310,-132,-366
20:57:09.135,,-110,-150,1043,770,70,-70,313,-127,-360
20:57:09.153,,-111,-144,1046,840,140,70,309,-132,-366
20:57:09.172,,-109,-149,1046,560,-210,140,307,-133,-357
20:57:09.191,,-108,-149,1052,420,70,70,304,-124,-367
20:57:09.210,,-110,-154,1047,420,210,70,307,-124,-360
20:57:09.229,,-107,-152,1046,1260,70,210,310,-126,-361
20:57:09.247,,-108,-143,1045,1190,770,210,310,-124,-355
20:57:09.266,,-105,-148,1042,350,840,140,313,-129,-354
20:57:09.285,,-106,-151,1042,-70,1120,210,315,-126,-363
20:57:09.304,,-108,-148,1037,70,1190,350,306,-124,-363
20:57:09.323,,-110,-150,1040,0,1120,490,307,-127,-358
20:57:09.341,,-112,-148,1036,630,770,700,310,-129,-360
20:57:09.360,,-110,-142,1039,1190,420,840,310,-121,-361
20:57:09.379,,-110,-139,1040,910,350,630,309,-126,-369
20:57:09.398,,-110,-140,1039,280,420,280,307,-129,-370
20:57:09.417,,-111,-142,1039,0,420,70,315,-118,-363
20:57:09.435,,-109,-144,1040,140,280,-210,309,-117,-361
20:57:09.454,,-109,-145,1039,140,280,-280,309,-124,-361
20:57:09.473,,-111,-146,1040,-70,280,-280,306,-124,-360
20:57:09.492,,-113,-145,1039,-140,70,-280,307,-120,-363
20:57:09.511,,-116,-140,1038,0,-210,-210,306,-132,-357
20:57:09.529,,-115,-142,1041,140,-700,-210,309,-118,-357
20:57:09.548,,-118,-143,1041,280,-910,-280,309,-126,-364
20:57:09.567,,-117,-143,1039,770,-1120,-420,307,-127,-361
20:57:09.586,,-117,-141,1042,1050,-1260,-420,310,-129,-369
20:57:09.605,,-117,-139,1044,630,-1260,-420,309,-130,-370
20:57:09.623,,-119,-140,1046,350,-1050,-280,301,-138,-360
20:57:09.642,,-120,-138,1049,420,-910,-210,309,-120,-369
20:57:09.661,,-120,-136,1049,700,-840,-280,315,-126,-367
20:57:09.680,,-121,-136,1048,1260,-770,-490,306,-133,-363
20:57:09.698,,-126,-136,1048,1890,-630,-560,301,-132,-364
20:57:09.717,,-126,-135,1045,2310,-770,-560,310,-127,-372
20:57:09.736,,-123,-135,1045,2240,-910,-350,307,-124,-370
20:57:09.755,,-122,-136,1043,1960,-840,-280,310,-127,-361
