Sensors' Acquisition [Hz]: Acc@52.0 Gyro@52.0 Mag@52.0 
hh:mm:ss.ms, Annotation , AccX [mg], AccY, AccZ, GyroX [mdps], GyroY, GyroZ, MagX [mgauss], MagY, MagZ
18:41:56.707,,-210,-21,1000,37100,-52990,-62440,-142,133,-430
18:41:56.725,,-209,-15,1013,152880,-239470,-232470,-132,124,-426
18:41:56.744,,-209,-15,1013,152880,-239470,-232470,-124,124,-421
18:41:56.763,,-209,-11,1015,14070,-29750,-13860,-129,126,-421
18:41:56.782,,-210,-14,1020,-1960,420,1820,-130,123,-424
18:41:56.801,,-206,-18,1019,-1960,-140,1260,-127,129,-427
18:41:56.819,,-204,-16,1025,-1610,-490,1120,-124,126,-430
18:41:56.838,,-199,-15,1035,-1680,-840,1260,-129,126,-435
18:41:56.857,,-196,-14,1033,-1680,-910,1330,-127,129,-436
18:41:56.876,,-198,-11,1034,-1260,-770,1330,-126,132,-424
18:41:56.895,,-196,-9,1035,-700,-630,910,-124,126,-421
18:41:56.913,,-197,-7,1034,-210,-420,280,-135,123,-426
18:41:56.932,,-192,-12,1034,140,-70,-280,-124,130,-421
18:41:56.951,,-195,-14,1026,280,700,-770,-123,130,-438
18:41:56.970,,-199,-19,1022,140,1120,-910,-124,129,-424
18:41:56.989,,-205,-25,1017,-140,1260,-1120,-133,129,-427
18:41:57.007,,-209,-28,1014,-140,980,-1470,-129,127,-430
18:41:57.026,,-209,-28,1018,-210,420,-1820,-123,126,-427
18:41:57.045,,-209,-35,1021,-840,-70,-1750,-127,127,-429
18:41:57.064,,-212,-31,1028,-840,-490,-1330,-132,130,-420
18:41:57.082,,-212,-23,1030,-700,-980,-840,-129,130,-426
18:41:57.101,,-210,-17,1030,-560,-1330,-210,-132,126,-435
18:41:57.120,,-213,-6,1030,140,-1050,70,-136,129,-435
18:41:57.139,,-210,-3,1034,420,-700,-280,-132,127,-438
18:41:57.158,,-209,-7,1028,140,-140,-910,-130,132,-429
18:41:57.176,,-207,-17,1030,0,280,-1540,-121,120,-427
18:41:57.196,>gest4_cross_right,,,,,,,,,
18:41:57.195,,-206,-26,1031,-70,490,-2030,-136,132,-435
18:41:57.214,,-206,-31,1026,-70,420,-2030,-129,133,-424
18:41:57.233,,-207,-32,1024,140,280,-1680,-124,126,-423
18:41:57.252,,-207,-32,1023,210,70,-1120,-124,126,-423
18:41:57.270,,-209,-30,1020,420,70,-490,-123,126,-424
18:41:57.289,,-210,-28,1017,210,140,-70,-136,127,-436
18:41:57.308,,-209,-25,1016,-140,210,0,-132,130,-439
18:41:57.327,,-210,-19,1015,-490,140,-70,-124,132,-429
18:41:57.346,,-211,-12,1009,-490,70,-140,-130,129,-424
18:41:57.364,,-211,-9,1009,-840,-210,-140,-135,132,-427
18:41:57.383,,-213,-10,1012,-1470,-910,-420,-130,135,-430
18:41:57.402,,-216,-7,1016,-1400,-1960,-1050,-129,132,-429
18:41:57.421,,-218,-7,1014,-1330,-3430,-1470,-130,132,-438
18:41:57.439,,-221,-4,1011,-1470,-4900,-1680,-130,126,-424
18:41:57.458,,-221,0,1013,-2170,-6090,-1680,-130,124,-427
18:41:57.477,,-221,-7,1018,-3290,-7210,-1890,-129,124,-427
18:41:57.496,,-215,-10,1025,-3780,-8400,-2450,-124,129,-427
18:41:57.515,,-206,-12,1025,-4550,-9450,-2870,-129,118,-427
18:41:57.533,,-200,-22,1023,-6090,-10220,-3080,-117,121,-417
18:41:57.552,,-191,-33,1015,-7070,-10990,-3010,-129,120,-418
18:41:57.571,,-179,-40,1009,-6370,-11550,-2800,-129,118,-435
18:41:57.590,,-172,-35,1015,-5460,-11620,-2660,-124,124,-430
18:41:57.609,,-168,-35,1012,-6720,-11900,-2450,-124,121,-432
18:41:57.627,,-170,-48,1010,-8400,-12670,-2450,-129,115,-435
18:41:57.646,,-165,-61,1016,-7980,-14280,-2590,-123,115,-435
18:41:57.665,,-159,-64,1024,-6230,-16030,-2310,-121,117,-424
18:41:57.684,,-159,-53,1036,-5180,-17570,-1610,-123,112,-421
18:41:57.703,,-162,-50,1050,-5530,-19390,-630,-126,112,-423
18:41:57.721,,-164,-48,1063,-5460,-21560,-70,-123,114,-427
18:41:57.740,,-169,-41,1088,-4480,-24150,280,-118,105,-421
18:41:57.759,,-176,-42,1140,-1680,-28210,1120,-118,99,-417
18:41:57.778,,-182,-28,1241,2660,-34230,4200,-117,105,-424
18:41:57.797,,-198,20,1440,8050,-42070,11060,-118,93,-405
18:41:57.815,,-178,105,1771,18130,-49770,20930,-115,76,-400
18:41:57.834,,-117,177,1990,36540,-51660,28070,-126,70,-391
18:41:57.853,,25,225,1998,57190,-40950,25270,-133,75,-387
18:41:57.872,,160,263,1998,69440,-12040,11620,-136,72,-391
18:41:57.891,,205,233,1998,67340,33390,-5810,-144,75,-394
18:41:57.909,,165,149,1994,63280,85190,-18200,-169,94,-399
18:41:57.928,,75,73,1921,63910,130060,-23030,-169,109,-396
18:41:57.947,,0,22,1739,73780,162190,-24290,-178,126,-409
18:41:57.966,,-37,-55,1427,86030,184730,-27720,-192,153,-418
18:41:57.984,,-32,-123,1081,91840,200690,-32760,-204,186,-421
18:41:58.003,,-56,-234,751,86310,211680,-35490,-217,217,-424
18:41:58.022,,-79,-324,502,78260,214200,-34720,-220,247,-421
18:41:58.041,,-112,-367,312,71890,207410,-30660,-235,277,-420
18:41:58.060,,-178,-376,129,64960,193200,-22820,-247,300,-423
18:41:58.078,,-244,-319,-75,56910,169190,-9520,-253,319,-415
18:41:58.097,,-305,-236,-238,48370,139650,7700,-252,334,-405
18:41:58.116,,-354,-118,-311,35980,109480,23030,-264,346,-399
18:41:58.135,,-359,-55,-340,16380,79310,33950,-270,339,-403
18:41:58.154,,-358,-24,-328,-840,50260,39900,-256,352,-397
18:41:58.172,,-361,40,-271,-10360,23730,42070,-255,352,-399
18:41:58.191,,-375,69,-218,-22260,560,42210,-261,342,-408
18:41:58.210,,-401,63,-179,-39340,-19740,40670,-247,330,-409
18:41:58.229,,-422,29,-171,-60410,-37590,37590,-247,330,-409
18:41:58.248,,-441,-19,-139,-84420,-53970,34720,-234,330,-421
18:41:58.266,,-462,-62,-30,-109550,-72800,34650,-229,310,-433
18:41:58.285,,-440,-70,145,-127890,-97720,38640,-222,297,-441
18:41:58.304,,-386,-67,298,-134120,-126630,44520,-189,277,-450
18:41:58.323,,-341,-12,425,-135520,-154770,46900,-163,255,-453
18:41:58.341,,-307,113,653,-137550,-178640,45430,-151,226,-462
18:41:58.360,,-203,160,986,-132650,-197820,42210,-133,205,-450
18:41:58.379,,-83,-4,1353,-117600,-206920,32200,-99,171,-460
18:41:58.398,,26,26,1656,-83300,-204120,15610,-91,138,-448
18:41:58.417,,107,122,1887,-48860,-186620,7070,-85,117,-439
18:41:58.435,,216,196,1996,-46480,-158900,4620,-76,88,-426
18:41:58.454,,222,94,1998,-70770,-122780,10500,-54,78,-418
18:41:58.473,,123,-91,1998,-91140,-89180,21420,-54,63,-399
18:41:58.492,,13,-121,1998,-77910,-65590,31080,-43,52,-408
18:41:58.511,,-64,-5,1998,-37730,-44800,39690,-31,51,-406
18:41:58.529,,-110,-5,1998,3220,-19040,44940,-21,40,-403
18:41:58.548,,-110,203,1998,3220,-19040,44940,-22,37,-408
18:41:58.567,,-93,289,1998,27580,12880,44940,-24,51,-406
18:41:58.586,,-84,249,1998,43400,49770,39060,-28,54,-418
18:41:58.605,,-82,144,1998,60340,86730,33390,-30,66,-418
18:41:58.623,,-82,55,1922,75880,118160,31360,-42,84,-421
18:41:58.642,,-86,5,1710,86450,142170,33530,-52,96,-433
18:41:58.661,,-72,-19,1470,89040,159110,37870,-52,126,-451
18:41:58.680,,-54,-33,1243,87010,170800,41370,-72,142,-453
18:41:58.699,,-47,-85,994,85890,177310,42210,-82,166,-463
18:41:58.717,,-39,-91,810,91770,177660,39690,-88,187,-475
18:41:58.736,,-29,-81,665,103950,172970,35980,-99,216,-472
18:41:58.755,,-29,-18,540,117180,164640,30800,-123,235,-474
18:41:58.812,,-61,135,190,94430,125580,13020,-147,288,-462
18:41:58.813,,-61,135,190,94430,125580,13020,-147,288,-462
18:41:58.813,,-61,135,190,94430,125580,13020,-147,288,-462
18:41:58.830,,-68,146,133,82880,105630,7490,-171,295,-456
18:41:58.849,,-63,199,85,78400,82670,1820,-181,304,-451
18:41:58.868,,-72,283,-10,75670,58240,-5180,-187,307,-444
18:41:58.886,,-112,370,-110,66570,33320,-15470,-192,321,-444
18:41:58.905,,-185,433,-161,49000,7910,-27090,-210,318,-442
18:41:58.924,,-261,483,-163,30240,-20230,-36750,-205,315,-438
18:41:58.943,,-316,525,-134,12670,-51450,-44870,-202,310,-441
18:41:58.962,,-318,568,-80,-4340,-83230,-53410,-204,304,-441
18:41:58.980,,-296,535,-41,-22540,-111300,-63420,-202,292,-444
18:41:58.999,,-311,462,36,-42700,-134470,-77700,-195,271,-448
18:41:59.018,,-313,370,189,-59920,-156800,-93380,-183,253,-448
18:41:59.037,,-300,254,386,-67480,-177520,-103740,-184,235,-448
18:41:59.056,,-261,203,585,-65380,-193620,-111160,-192,226,-444
18:41:59.074,,-278,153,782,-65520,-204050,-119140,-178,202,-432
18:41:59.093,,-282,119,980,-60830,-210420,-125650,-172,186,-426
18:41:59.112,,-256,56,1171,-46340,-209510,-127540,-183,166,-414
18:41:59.131,,-184,64,1381,-32480,-201530,-131320,-198,154,-414
18:41:59.150,,-88,76,1603,-28350,-185920,-135030,-192,151,-409
18:41:59.168,,-69,-56,1786,-38360,-161770,-132510,-193,138,-400
18:41:59.187,,-24,-305,1860,-51030,-135660,-124110,-193,138,-400
18:41:59.206,,9,-532,1906,-46130,-105280,-106610,-202,127,-405
18:41:59.225,,-8,-558,1896,-31010,-72450,-83860,-202,129,-387
18:41:59.244,,-81,-473,1779,-26950,-40040,-58310,-198,133,-393
18:41:59.262,,-173,-425,1637,-34440,-13510,-33810,-196,136,-394
18:41:59.281,,-241,-367,1484,-37660,4270,-14700,-196,132,-399
18:41:59.300,,-276,-290,1328,-30380,14980,-1540,-193,145,-399
18:41:59.319,,-277,-199,1222,-15330,20440,5950,-195,139,-400
18:41:59.338,,-253,-93,1157,-2310,23660,9450,-190,147,-399
18:41:59.356,,-233,-21,1094,2520,25970,11830,-196,148,-399
18:41:59.375,,-221,3,1047,1890,26460,13510,-192,150,-405
18:41:59.394,,-195,12,1023,1820,25340,14280,-187,150,-402
18:41:59.413,,-182,22,998,3780,23590,14210,-180,153,-400
18:41:59.431,,-174,32,983,5950,20860,13160,-198,147,-400
18:41:59.450,,-159,39,975,6580,17990,11760,-183,153,-409
18:41:59.469,,-139,28,976,7070,15330,10220,-184,154,-409
18:41:59.488,,-128,42,977,7980,13440,8190,-187,159,-409
18:41:59.507,,-124,49,977,7070,12180,6370,-198,153,-408
18:41:59.525,,-128,35,975,4200,10640,4690,-190,157,-412
18:41:59.544,,-140,22,964,2660,8890,3220,-193,151,-408
18:41:59.563,,-147,30,962,2310,6930,2100,-192,160,-421
18:41:59.582,,-158,34,968,700,4830,1750,-199,168,-418
18:41:59.601,,-162,24,978,-350,2310,1820,-193,166,-420
18:41:59.619,,-168,22,990,1680,140,1540,-199,163,-420
18:41:59.638,,-173,42,1003,4760,-1190,490,-198,163,-418
18:41:59.657,,-175,48,1007,4690,-1750,-840,-195,160,-420
18:41:59.676,,-171,40,1022,2240,-1680,-2100,-189,160,-415
18:41:59.695,,-173,25,1031,-910,-980,-2520,-193,160,-411
18:41:59.713,,-178,-2,1036,-2520,-700,-2590,-193,156,-421
18:41:59.732,,-180,-12,1047,-1540,-840,-2940,-190,163,-409
18:41:59.751,,-181,-6,1052,-210,-1190,-2870,-184,162,-414
18:41:59.770,,-182,-1,1052,-980,-1610,-1960,-190,162,-414
18:41:59.789,,-179,-13,1053,-2170,-2030,-1120,-198,163,-420
18:41:59.807,,-180,-22,1050,-1330,-1960,-770,-195,160,-417
18:41:59.826,,-185,-14,1038,910,-1050,-490,-192,156,-411
18:41:59.845,,-187,-7,1040,1540,630,280,-199,159,-417
18:41:59.864,,-190,-14,1044,-770,2310,910,-196,163,-415
18:41:59.883,,-194,-30,1040,-3500,3570,1540,-192,159,-418
18:41:59.901,,-193,-37,1026,-3990,4340,2240,-196,157,-418
18:41:59.920,,-200,-35,1021,-2730,5040,3150,-193,147,-408
18:41:59.939,,-206,-21,1016,-1540,5040,4270,-192,162,-415
18:41:59.958,,-208,-9,1014,-1330,4690,5250,-196,160,-420
18:41:59.976,,-210,1,1013,-1680,3990,5880,-192,157,-415
18:41:59.995,,-207,7,1010,-1960,3010,6160,-190,163,-415
18:42:00.014,,-201,19,1014,-1050,2030,5880,-184,162,-406
18:42:00.033,,-195,30,1017,0,1120,5110,-190,154,-409
18:42:00.052,,-191,41,1014,280,280,3920,-190,159,-418
18:42:00.070,,-179,46,1017,-140,-560,2520,-189,157,-411
18:42:00.089,,-171,38,1018,-980,-980,1330,-178,153,-417
18:42:00.108,,-166,30,1028,-770,-1400,280,-184,159,-421
18:42:00.127,,-170,28,1027,-490,-1820,-490,-202,160,-417
18:42:00.146,,-171,18,1031,-630,-2310,-840,-190,159,-412
18:42:00.164,,-170,7,1039,-700,-2940,-1330,-189,159,-420
18:42:00.183,,-168,4,1047,-280,-3220,-1820,-189,159,-420
18:42:00.202,,-168,5,1047,-420,-3080,-2170,-195,157,-420
18:42:00.221,,-170,-3,1051,-1540,-2520,-2170,-192,166,-423
18:42:00.240,,-181,-12,1055,-2380,-1890,-1820,-184,160,-424
18:42:00.258,,-190,-17,1052,-1750,-1470,-1260,-187,160,-412
18:42:00.277,,-202,-12,1048,-490,-980,-700,-193,160,-423
18:42:00.296,,-205,-3,1045,-70,-490,-140,-187,154,-418
18:42:00.315,,-208,1,1035,-770,350,210,-186,157,-421
18:42:00.334,,-208,1,1035,-770,350,210,-187,159,-418
18:42:00.352,,-212,1,1038,-1820,1260,630,-190,157,-417
18:42:00.371,,-212,-6,1032,-2660,1680,770,-187,157,-411
18:42:00.390,,-212,-10,1034,-2310,1890,840,-181,157,-412
18:42:00.409,,-206,-5,1032,-1540,1540,1050,-187,148,-414
18:42:00.428,,-199,-2,1028,-490,1330,1610,-189,165,-418
18:42:00.446,,-197,12,1030,-140,1750,2310,-189,165,-414
18:42:00.465,,-194,5,1032,-910,1890,2590,-178,160,-412
18:42:00.484,,-193,4,1027,-490,1890,2240,-190,159,-409
18:42:00.503,,-190,8,1023,-70,2030,1540,-181,159,-420
18:42:00.521,,-186,7,1016,-980,2240,910,-178,159,-405
18:42:00.540,,-187,2,1013,-2590,2240,840,-178,148,-408
18:42:00.559,,-187,-5,1017,-3430,1680,840,-187,163,-423
18:42:00.578,,-190,-10,1015,-2660,700,490,-190,162,-415
18:42:00.597,,-191,-4,1020,-1190,-280,140,-186,160,-420
18:42:00.615,,-193,-2,1025,-840,-1190,0,-190,156,-411
18:42:00.634,,-191,-2,1028,-1260,-1750,140,-190,157,-414
18:42:00.653,,-193,0,1035,-1750,-1820,280,-187,162,-417
18:42:00.672,,-194,-3,1042,-2240,-1750,280,-172,159,-414
18:42:00.691,,-196,0,1044,-2100,-1470,210,-184,166,-417
18:42:00.709,,-199,2,1042,-2100,-980,210,-190,160,-412
18:42:00.728,,-202,0,1043,-2100,-840,-140,-180,153,-417
18:42:00.747,,-202,-3,1037,-1260,-1120,-420,-186,162,-423
18:42:00.766,,-201,0,1044,-280,-1540,-490,-187,156,-421
18:42:00.785,,-198,-3,1047,70,-1890,-630,-184,159,-414
18:42:00.803,,-197,-5,1048,840,-1890,-420,-175,157,-424
18:42:00.822,,-195,0,1046,1470,-1330,-280,-183,153,-414
18:42:00.841,,-195,-3,1046,980,-420,-210,-192,160,-420
18:42:00.860,,-195,-10,1041,490,350,-350,-183,162,-418
18:42:00.879,,-195,-17,1034,840,1190,-280,-183,160,-408
18:42:00.897,,-200,-13,1027,1120,1890,0,-184,153,-414
18:42:00.916,,-203,-14,1021,210,2240,630,-183,159,-420
18:42:00.935,,-202,-20,1019,-770,2100,1260,-177,162,-417
18:42:00.954,,-204,-15,1019,-350,1680,1820,-186,156,-415
18:42:00.973,,-205,-8,1013,280,1120,2030,-180,159,-414
18:42:00.991,,-202,0,1010,350,840,2100,-178,159,-420
18:42:01.010,,-200,7,1004,-490,980,1890,-183,165,-412
18:42:01.029,,-197,3,1009,-1400,1050,1330,-181,163,-418
18:42:01.048,,-199,4,1014,-2170,840,560,-190,160,-421
18:42:01.066,,-197,1,1015,-3080,140,140,-177,154,-421
18:42:01.085,,-194,-2,1018,-3990,-700,210,-180,157,-427
18:42:01.104,,-198,-3,1022,-4620,-1260,630,-183,156,-427
18:42:01.123,,-201,-8,1033,-4410,-1960,980,-183,157,-412
18:42:01.142,,-198,-2,1040,-3290,-2660,910,-180,160,-417
18:42:01.160,,-198,1,1041,-2520,-2940,700,-180,160,-417
18:42:01.179,,-197,2,1049,-1820,-2730,490,-175,157,-420
18:42:01.198,,-198,2,1052,-1190,-2310,70,-178,151,-411
18:42:01.217,,-195,0,1054,-490,-2030,-280,-184,165,-415
18:42:01.236,,-197,0,1058,70,-1610,-560,-181,154,-420
18:42:01.254,,-196,-6,1052,140,-1260,-560,-178,159,-421
18:42:01.273,,-192,-11,1049,350,-770,-420,-189,162,-415
18:42:01.292,,-190,-13,1049,700,-210,0,-174,159,-418
18:42:01.311,,-189,-16,1041,910,350,560,-181,156,-409
18:42:01.330,,-188,-12,1034,1260,1120,1050,-193,159,-421
18:42:01.348,,-192,-8,1025,1190,1820,1400,-178,159,-421
18:42:01.367,,-197,-7,1016,770,2170,1470,-171,154,-415
18:42:01.386,,-202,-5,1011,490,1960,1400,-177,153,-409
18:42:01.405,,-203,-2,1005,-140,1120,1400,-180,157,-412
18:42:01.424,,-204,0,1005,-840,70,1330,-177,151,-421
18:42:01.442,,-199,3,1010,-1190,-1190,1050,-177,151,-414
18:42:01.461,,-199,4,1018,-1400,-2030,630,-181,156,-424
18:42:01.480,,-197,6,1029,-1540,-2800,70,-178,154,-424
18:42:01.499,,-194,2,1036,-1540,-2940,-140,-184,154,-421
18:42:01.518,,-194,4,1041,-1260,-2590,-420,-172,154,-418
18:42:01.536,,-193,2,1039,-1680,-1750,-840,-178,150,-411
18:42:01.555,,-194,-7,1041,-2590,-840,-1260,-186,154,-418
18:42:01.574,,-198,-15,1046,-3150,-280,-1470,-181,160,-415
18:42:01.593,,-200,-20,1041,-2660,-420,-1050,-178,148,-418
18:42:01.611,,-198,-17,1039,-1400,-770,-420,-178,151,-408
18:42:01.630,,-198,-8,1037,-210,-700,350,-172,153,-417
18:42:01.649,,-198,-2,1035,-70,-140,840,-181,151,-421
18:42:01.668,,-196,-3,1032,-420,280,770,-180,160,-423
18:42:01.687,,-197,-6,1034,-770,700,140,-180,153,-427
18:42:01.705,,-197,-11,1031,-1120,630,-210,-183,153,-418
18:42:01.724,,-194,-13,1034,-1190,280,-70,-175,153,-420
18:42:01.743,,-192,-8,1033,-910,0,280,-177,156,-423
18:42:01.762,,-193,-4,1033,-420,70,700,-177,166,-420
18:42:01.781,,-195,-1,1035,-70,140,560,-178,153,-420
18:42:01.796,<gest4_cross_right,,,,,,,,,
18:42:01.799,,-199,-2,1035,420,420,140,-171,162,-420
18:42:01.818,,-198,-5,1031,770,630,-350,-175,153,-420
18:42:01.837,,-197,-9,1026,910,1050,-490,-183,153,-415
18:42:01.856,,-195,-13,1018,630,1540,-490,-172,154,-412
18:42:01.875,,-195,-16,1013,70,1890,-280,-177,159,-423
18:42:01.893,,-200,-19,1009,-840,1750,-210,-183,153,-423
18:42:01.912,,-205,-21,1009,-1400,1120,-70,-178,153,-430
18:42:01.931,,-204,-22,1010,-1120,0,280,-181,168,-423
18:42:01.950,,-204,-12,1016,-280,-980,770,-171,160,-420
18:42:01.969,,-202,-5,1018,0,-1680,980,-175,157,-418
18:42:01.987,,-200,2,1020,-70,-1610,980,-181,157,-426
18:42:02.006,,-200,5,1021,-770,-1050,630,-172,160,-421
18:42:02.025,,-202,-2,1024,-1680,-630,140,-171,151,-412
18:42:02.044,,-205,-10,1028,-2030,-700,-420,-175,160,-417
18:42:02.062,,-206,-15,1029,-1680,-1190,-350,-178,151,-414
18:42:02.081,,-202,-14,1031,-1260,-1820,280,-175,154,-417
18:42:02.100,,-198,-11,1033,-910,-2100,980,-177,153,-417
18:42:02.119,,-197,-11,1036,-420,-1960,1190,-177,153,-417
18:42:02.138,,-197,-5,1036,-420,-1960,1190,-186,157,-424
18:42:02.156,,-197,-1,1035,70,-1750,1050,-174,154,-415
18:42:02.175,,-197,0,1037,210,-1260,630,-177,156,-423
18:42:02.194,,-196,-3,1037,-140,-980,350,-180,153,-418
18:42:02.213,,-192,-5,1036,-70,-630,350,-184,156,-420
18:42:02.232,,-188,-1,1034,210,-140,210,-177,153,-421
18:42:02.250,,-188,-2,1026,-70,630,140,-177,156,-420
18:42:02.269,,-189,-6,1022,-140,1120,0,-175,157,-421
18:42:02.288,,-192,-8,1023,280,1330,-70,-184,163,-418
18:42:02.307,,-196,-4,1014,490,1120,-70,-163,154,-421
18:42:02.326,,-199,-6,1009,280,700,-140,-160,153,-412
18:42:02.344,,-201,-8,1009,-70,140,-280,-183,157,-417
18:42:02.363,,-200,-12,1012,-140,-420,-560,-174,156,-420
18:42:02.382,,-197,-11,1016,-140,-630,-630,-166,153,-414
18:42:02.401,,-195,-11,1020,-560,-630,-350,-177,154,-424
18:42:02.420,,-198,-9,1018,-1120,-350,0,-175,147,-412
18:42:02.438,,-202,-6,1020,-1330,-140,140,-172,145,-420
18:42:02.457,,-205,-8,1020,-1400,-490,70,-168,156,-415
18:42:02.476,,-206,-4,1015,-840,-1050,70,-181,157,-423
18:42:02.495,,-202,4,1023,-420,-1400,280,-184,162,-424
18:42:02.514,,-194,4,1022,-770,-1540,280,-178,156,-427
18:42:02.532,,-190,6,1020,-980,-1050,-70,-174,151,-411
18:42:02.551,,-190,3,1022,-1330,-280,-630,-174,163,-424
18:42:02.570,,-191,-5,1023,-2310,140,-1260,-174,151,-427
18:42:02.589,,-193,-15,1018,-2870,-210,-1820,-172,160,-423
18:42:02.607,,-195,-18,1018,-2590,-980,-1890,-175,154,-426
18:42:02.626,,-193,-18,1027,-2100,-1890,-1540,-175,157,-418
18:42:02.645,,-192,-11,1032,-1610,-2450,-980,-177,154,-415
18:42:02.664,,-193,-2,1035,-1470,-2450,-700,-168,157,-414
18:42:02.683,,-192,-4,1036,-1610,-2030,-700,-175,151,-412
18:42:02.701,,-194,-4,1037,-1190,-1260,-980,-175,153,-414
18:42:02.720,,-196,-6,1032,-770,-490,-1330,-165,162,-417
18:42:02.739,,-194,-12,1028,-490,280,-1540,-172,157,-421
18:42:02.758,,-197,-14,1027,-490,980,-1610,-183,162,-423
18:42:02.777,,-200,-18,1018,-560,1120,-1470,-178,157,-421
18:42:02.795,,-203,-16,1011,-140,840,-1190,-172,153,-417
18:42:02.814,,-205,-16,1009,-140,420,-840,-172,157,-423
18:42:02.833,,-203,-15,1010,-420,-210,-420,-181,162,-426
18:42:02.852,,-200,-15,1012,-420,-700,-210,-174,160,-420
18:42:02.871,,-198,-13,1015,-280,-980,-140,-181,156,-420
18:42:02.889,,-197,-11,1012,210,-980,-140,-180,157,-421
18:42:02.908,,-198,-6,1012,420,-420,-140,-177,159,-420
18:42:02.927,,-197,-10,1011,-140,140,-350,-177,159,-424
18:42:02.946,,-195,-16,1010,-700,560,-840,-169,159,-423
18:42:02.965,,-200,-21,1007,-1260,700,-1190,-180,159,-418
18:42:02.983,,-205,-29,1007,-1890,210,-910,-169,145,-415
18:42:03.002,,-205,-33,1014,-1750,-1050,-420,-171,153,-424
18:42:03.021,,-202,-26,1016,-1050,-2380,70,-174,153,-415
18:42:03.040,,-199,-18,1023,-630,-2870,560,-175,159,-415
18:42:03.059,,-198,-14,1032,-630,-2520,910,-181,151,-424
18:42:03.077,,-197,-14,1031,-350,-1750,770,-168,151,-423
18:42:03.096,,-198,-11,1024,-70,-700,420,-168,151,-423
18:42:03.115,,-198,-16,1021,-490,70,-70,-163,150,-414
18:42:03.134,,-199,-25,1014,-980,420,-70,-175,157,-417
18:42:03.152,,-199,-27,1017,-980,420,490,-174,165,-424
18:42:03.171,,-198,-23,1018,-1190,140,1260,-171,153,-421
18:42:03.190,,-197,-18,1018,-1400,-280,1680,-175,154,-423
18:42:03.209,,-198,-10,1021,-1330,-700,1680,-172,160,-418
18:42:03.228,,-198,-6,1024,-1050,-1190,1470,-177,160,-414
18:42:03.246,,-196,-1,1029,-420,-1540,1260,-177,157,-417
18:42:03.265,,-192,0,1033,-70,-1540,630,-169,154,-421
18:42:03.284,,-190,-3,1030,0,-980,-70,-174,157,-415
18:42:03.303,,-190,-9,1029,-350,-210,-700,-163,148,-409
18:42:03.322,,-190,-20,1025,-1050,350,-840,-163,151,-417
18:42:03.340,,-194,-25,1027,-1400,420,-560,-166,157,-415
18:42:03.359,,-197,-22,1029,-1260,70,70,-175,151,-423
18:42:03.378,,-201,-17,1029,-1120,-490,770,-166,150,-415
18:42:03.397,,-202,-9,1027,-630,-1120,1260,-166,145,-415
18:42:03.416,,-201,0,1027,70,-1260,1260,-171,148,-429
