Sensors' Acquisition [Hz]: Acc@52.0 Gyro@52.0 Mag@52.0 
hh:mm:ss.ms, Annotation , AccX [mg], AccY, AccZ, GyroX [mdps], GyroY, GyroZ, MagX [mgauss], MagY, MagZ
16:07:49.339,,-316,169,994,-2030,280,2310,126,-25,-292
16:07:49.358,,-312,174,998,-2100,910,2240,129,-27,-300
16:07:49.377,,-306,181,995,-2310,1260,2030,136,-30,-294
16:07:49.396,,-303,183,993,-2800,1470,1820,120,-24,-286
16:07:49.414,,-305,188,995,-2590,1470,1540,123,-24,-292
16:07:49.433,,-302,193,997,-2310,1050,1120,123,-27,-301
16:07:49.452,,-300,193,1000,-1610,280,910,129,-18,-303
16:07:49.471,,-297,200,1002,-560,-350,630,126,-25,-291
16:07:49.490,,-296,205,1004,70,-560,420,126,-27,-295
16:07:49.508,,-296,207,1002,420,-630,70,120,-27,-300
16:07:49.527,,-302,206,998,1190,-630,-420,129,-24,-294
16:07:49.546,,-306,206,992,1890,-700,-1050,130,-24,-295
16:07:49.565,,-312,199,987,2030,-910,-1540,129,-25,-294
16:07:49.584,,-315,188,984,2170,-1330,-1890,118,-22,-288
16:07:49.602,,-318,183,980,2800,-1540,-1960,124,-25,-303
16:07:49.621,,-319,180,979,2940,-1820,-1820,130,-22,-294
16:07:49.640,,-320,172,977,2240,-1890,-1540,126,-27,-291
16:07:49.659,,-321,170,977,1960,-1750,-1190,123,-28,-294
16:07:49.677,,-323,172,976,1960,-1680,-840,117,-28,-291
16:07:49.696,,-323,175,978,1540,-1400,-630,124,-30,-300
16:07:49.715,,-323,178,978,630,-1120,-420,120,-28,-295
16:07:49.734,,-322,179,979,-70,-840,-210,117,-25,-292
16:07:49.753,,-322,179,980,-630,-630,-140,115,-30,-300
16:07:49.771,,-320,183,981,-770,-350,-70,118,-27,-294
16:07:49.790,,-322,187,981,-1050,-140,-70,126,-28,-294
16:07:49.809,,-321,186,983,-1260,-210,0,126,-19,-292
16:07:49.828,,-318,188,984,-1260,-280,70,118,-33,-288
16:07:49.846,,-315,189,985,-1260,-420,140,121,-33,-286
16:07:49.865,,-313,187,989,-1190,-420,210,130,-27,-294
16:07:49.884,,-314,191,992,-910,-350,140,130,-27,-294
16:07:49.903,,-309,191,990,-980,-280,0,117,-22,-294
16:07:49.921,,-308,191,989,-980,-210,-350,126,-25,-300
16:07:49.940,,-310,189,987,-1120,0,-700,118,-25,-297
16:07:49.959,,-311,189,985,-980,-140,-840,111,-28,-298
16:07:49.978,,-310,188,984,-770,-420,-910,129,-24,-289
16:07:49.997,,-313,187,986,-700,-910,-910,124,-24,-294
16:07:50.015,,-313,185,986,-280,-1540,-980,121,-24,-300
16:07:50.034,,-313,188,986,0,-1540,-980,130,-21,-291
16:07:50.053,,-313,188,988,-420,-1540,-1050,129,-30,-288
16:07:50.072,,-312,181,989,-770,-1330,-1120,118,-22,-294
16:07:50.090,,-312,181,989,-350,-1190,-1330,126,-28,-292
16:07:50.109,,-315,181,988,-350,-1190,-1330,123,-31,-294
16:07:50.128,,-317,180,989,-140,-1190,-1330,121,-28,-294
16:07:50.147,,-317,177,991,-350,-1190,-1190,130,-30,-294
16:07:50.166,,-316,176,993,-490,-1190,-910,123,-24,-292
16:07:50.184,,-315,177,993,-490,-980,-700,132,-28,-295
16:07:50.203,,-315,179,993,-560,-770,-560,123,-22,-288
16:07:50.222,,-316,181,992,-560,-490,-420,127,-25,-288
16:07:50.241,,-315,184,991,-490,-140,-420,120,-31,-294
16:07:50.259,,-315,185,989,-630,70,-490,123,-24,-291
16:07:50.278,,-316,182,989,-700,140,-490,121,-30,-289
16:07:50.297,,-314,182,988,-350,0,-630,121,-31,-292
16:07:50.316,,-317,184,987,-280,0,-560,127,-24,-294
16:07:50.335,,-315,183,986,-560,-350,-420,126,-24,-283
16:07:50.353,,-314,184,986,-420,-420,-210,124,-21,-298
16:07:50.372,,-315,189,987,-280,-490,-140,121,-25,-289
16:07:50.391,,-314,185,990,-280,-840,-210,117,-22,-294
16:07:50.410,,-315,186,989,350,-1120,-560,123,-31,-300
16:07:50.428,,-313,190,988,560,-1190,-840,123,-24,-292
16:07:50.447,,-314,187,987,-140,-980,-910,118,-25,-298
16:07:50.466,,-317,181,990,-490,-770,-840,126,-30,-295
16:07:50.485,,-319,182,991,140,-840,-840,126,-31,-283
16:07:50.504,,-320,186,988,350,-840,-910,127,-21,-289
16:07:50.522,,-318,183,989,-70,-980,-840,126,-24,-285
16:07:50.541,,-318,180,990,-210,-700,-630,123,-27,-297
16:07:50.560,,-318,181,993,70,-490,-420,123,-27,-282
16:07:50.579,,-318,184,992,210,-350,-280,120,-27,-301
16:07:50.598,,-316,186,988,70,-140,-350,126,-22,-292
16:07:50.610,>gest9_down,,,,,,,,,
16:07:50.616,,-315,188,988,0,140,-420,126,-18,-304
16:07:50.635,,-314,187,988,-140,210,-560,117,-30,-297
16:07:50.654,,-315,185,985,-70,0,-560,120,-24,-295
16:07:50.673,,-317,184,982,280,-350,-490,120,-28,-291
16:07:50.691,,-318,183,981,700,-910,-350,120,-39,-294
16:07:50.710,,-320,183,981,770,-1400,-210,118,-27,-295
16:07:50.729,,-319,180,985,630,-1890,0,124,-27,-288
16:07:50.748,,-317,178,992,560,-1820,140,129,-28,-294
16:07:50.767,,-315,179,998,490,-1400,210,120,-27,-288
16:07:50.785,,-313,180,995,70,-700,210,124,-27,-286
16:07:50.804,,-312,182,995,-70,210,280,132,-30,-285
16:07:50.823,,-312,188,993,-70,910,70,121,-33,-297
16:07:50.842,,-315,192,990,-210,1190,-210,121,-33,-297
16:07:50.860,,-318,194,990,-280,980,-420,120,-19,-292
16:07:50.879,,-319,194,990,70,490,-420,120,-24,-295
16:07:50.898,,-316,194,990,490,70,-490,121,-24,-300
16:07:50.917,,-314,195,993,700,-70,-490,123,-30,-297
16:07:50.936,,-313,191,997,840,70,-420,121,-28,-297
16:07:50.954,,-312,190,995,910,280,-560,115,-22,-297
16:07:50.973,,-313,190,988,1190,630,-560,124,-25,-303
16:07:50.992,,-318,192,987,1190,840,-420,117,-25,-291
16:07:51.011,,-322,189,985,1190,770,-70,126,-24,-292
16:07:51.029,,-324,195,984,1680,420,70,118,-22,-298
16:07:51.048,,-323,197,982,2030,-70,0,124,-24,-303
16:07:51.067,,-324,197,982,2450,-280,-210,112,-24,-298
16:07:51.086,,-322,197,981,2520,-280,-560,123,-34,-289
16:07:51.105,,-320,194,981,2170,140,-770,121,-27,-294
16:07:51.123,,-316,190,977,1540,490,-1050,126,-27,-297
16:07:51.142,,-312,187,967,1260,910,-1330,124,-31,-297
16:07:51.161,,-311,186,954,700,1050,-1540,120,-24,-295
16:07:51.180,,-311,181,935,-350,1050,-1400,117,-22,-294
16:07:51.198,,-308,180,921,-1120,280,-1120,121,-28,-298
16:07:51.217,,-307,180,904,-2030,-1050,-840,124,-25,-301
16:07:51.236,,-297,182,886,-3080,-2940,-980,120,-27,-300
16:07:51.255,,-282,181,865,-4760,-4690,-1680,120,-18,-300
16:07:51.274,,-258,172,833,-7210,-6160,-3150,115,-21,-292
16:07:51.292,,-229,164,783,-11060,-6930,-5460,124,-22,-300
16:07:51.311,,-203,148,716,-17290,-7840,-8470,129,-34,-292
16:07:51.330,,-189,125,640,-25480,-10150,-12250,124,-31,-294
16:07:51.349,,-182,102,553,-34510,-15750,-16590,130,-28,-291
16:07:51.367,,-164,87,478,-44940,-25410,-20860,135,-37,-291
16:07:51.386,,-152,50,409,-55160,-39410,-23940,133,-30,-282
16:07:51.405,,-139,49,347,-62300,-57190,-26950,145,-42,-277
16:07:51.424,,-164,48,322,-70280,-75460,-30450,150,-55,-277
16:07:51.443,,-127,36,373,-82740,-104160,-37380,156,-58,-267
16:07:51.461,,-50,-3,474,-94500,-131950,-43330,165,-75,-259
16:07:51.480,,14,-74,542,-98350,-155540,-48020,168,-75,-247
16:07:51.499,,89,-120,656,-94850,-179760,-52010,180,-90,-234
16:07:51.518,,205,-231,867,-87710,-201250,-52710,178,-97,-210
16:07:51.536,,321,-227,1039,-71330,-216720,-51730,187,-96,-196
16:07:51.555,,455,-256,1211,-48930,-223020,-45500,178,-96,-187
16:07:51.574,,571,-214,1388,-32760,-218260,-38010,183,-99,-174
16:07:51.593,,686,-246,1630,-26390,-202230,-29400,184,-90,-154
16:07:51.612,,789,-257,1828,-25900,-178360,-24570,177,-94,-151
16:07:51.630,,834,-227,1911,-24500,-147700,-22750,169,-84,-142
16:07:51.649,,803,-190,1902,-24430,-108850,-19600,175,-90,-136
16:07:51.668,,726,-177,1878,-29470,-69860,-14420,162,-85,-130
16:07:51.687,,637,-198,1809,-29120,-36120,-7420,171,-87,-139
16:07:51.705,,552,-143,1721,-16450,-8680,-1120,172,-91,-141
16:07:51.724,,501,-87,1664,-2450,11480,4340,168,-82,-135
16:07:51.743,,490,-62,1625,8050,27230,7350,165,-91,-127
16:07:51.762,,510,-79,1628,19110,40670,8890,178,-84,-139
16:07:51.781,,542,-91,1647,31360,55020,9240,178,-84,-139
16:07:51.799,,586,-96,1622,40390,70490,10570,172,-94,-144
16:07:51.818,,583,-91,1546,45430,87360,13440,172,-90,-151
16:07:51.837,,562,-124,1484,51030,102900,16240,174,-100,-156
16:07:51.856,,529,-131,1367,61530,116760,16730,175,-99,-162
16:07:51.874,,457,-131,1237,73430,129290,16380,180,-106,-166
16:07:51.893,,457,-99,1237,73430,129290,16380,181,-105,-178
16:07:51.912,,386,-68,1142,78400,137060,15540,171,-108,-187
16:07:51.931,,329,-80,1056,77210,140070,12390,180,-114,-204
16:07:51.950,,281,-102,990,76090,139650,8680,168,-108,-222
16:07:51.968,,232,-106,944,76300,137690,6860,162,-103,-232
16:07:51.987,,190,-94,880,76580,135800,7560,156,-108,-237
16:07:52.006,,140,-67,828,74620,134820,8610,148,-97,-253
16:07:52.025,,103,-46,784,68040,132160,8890,145,-81,-271
16:07:52.043,,41,-17,716,58240,129920,7490,139,-75,-267
16:07:52.062,,-8,-12,656,48230,124600,6090,130,-70,-274
16:07:52.081,,-52,-4,623,41510,117320,3850,127,-66,-285
16:07:52.100,,-94,4,572,37730,108990,630,121,-55,-285
16:07:52.119,,-145,35,534,33040,100030,-1960,118,-40,-295
16:07:52.137,,-185,49,528,23240,88480,-3080,121,-37,-292
16:07:52.156,,-219,36,535,12530,74970,-2380,120,-31,-286
16:07:52.175,,-248,33,553,6580,59570,-70,111,-18,-301
16:07:52.194,,-267,37,574,6440,43470,2800,124,-19,-309
16:07:52.212,,-291,79,596,8820,28980,5950,112,-22,-288
16:07:52.231,,-305,126,643,7700,15680,9520,106,-24,-306
16:07:52.250,,-312,157,711,2590,3570,12740,108,-13,-306
16:07:52.269,,-318,172,787,-1400,-6790,15400,109,-19,-297
16:07:52.288,,-325,191,857,-350,-14700,16590,114,-16,-304
16:07:52.306,,-338,232,915,1540,-19600,15540,115,-16,-300
16:07:52.325,,-343,286,964,630,-21070,13020,105,-25,-298
16:07:52.344,,-340,301,1013,-2450,-18620,10010,117,-24,-294
16:07:52.363,,-332,292,1058,-6510,-14280,6300,109,-21,-297
16:07:52.382,,-329,271,1087,-9310,-9380,1820,115,-21,-294
16:07:52.400,,-332,250,1099,-8750,-4200,-1260,111,-34,-297
16:07:52.419,,-336,231,1099,-5740,-420,-2940,118,-24,-292
16:07:52.438,,-335,218,1083,-2520,2450,-3500,117,-30,-304
16:07:52.457,,-331,206,1063,-420,4410,-2520,115,-31,-306
16:07:52.475,,-330,195,1042,700,5530,-630,117,-24,-295
16:07:52.494,,-323,192,1016,2240,5880,1260,118,-24,-289
16:07:52.513,,-319,199,1003,4340,5740,2590,121,-21,-294
16:07:52.532,,-314,207,984,5320,4760,3150,121,-22,-298
16:07:52.551,,-316,209,965,5670,3500,3360,112,-30,-301
16:07:52.569,,-316,213,955,6370,2240,3290,108,-24,-295
16:07:52.588,,-317,216,951,7000,1260,3010,108,-27,-295
16:07:52.607,,-319,219,950,6720,0,2310,109,-19,-297
16:07:52.626,,-319,216,945,5880,-1260,1470,111,-22,-288
16:07:52.644,,-317,213,940,5250,-1960,770,106,-24,-307
16:07:52.663,,-317,207,948,4480,-2170,420,108,-24,-291
16:07:52.682,,-317,200,956,3360,-2520,210,109,-25,-304
16:07:52.701,,-317,193,960,2940,-2940,0,109,-22,-297
16:07:52.720,,-317,195,965,3010,-3150,-140,109,-22,-297
16:07:52.738,,-313,197,965,2240,-2660,-140,109,-33,-300
16:07:52.757,,-310,200,966,840,-1680,0,106,-27,-291
16:07:52.776,,-316,199,969,-280,-700,210,109,-22,-295
16:07:52.795,,-321,200,971,-630,-560,70,105,-22,-298
16:07:52.813,,-325,205,967,-490,-700,-70,108,-24,-297
16:07:52.832,,-326,211,969,-560,-1050,140,111,-22,-298
16:07:52.851,,-328,215,972,-630,-1120,420,112,-30,-300
16:07:52.870,,-326,224,978,-630,-1050,280,109,-30,-306
16:07:52.889,,-326,228,985,-980,-840,-70,111,-25,-297
16:07:52.907,,-324,222,983,-1540,-700,-560,109,-24,-307
16:07:52.926,,-324,220,981,-1330,-280,-980,108,-24,-306
16:07:52.945,,-322,217,978,-1470,70,-1190,106,-28,-294
16:07:52.964,,-322,211,985,-1540,280,-910,108,-30,-297
16:07:52.982,,-320,211,986,-1330,-140,-700,111,-25,-298
16:07:53.001,,-317,213,981,-770,-420,-210,108,-22,-301
16:07:53.020,,-312,216,977,-630,-560,-70,111,-28,-304
16:07:53.039,,-312,218,975,-770,-70,0,114,-22,-301
16:07:53.058,,-315,218,971,-1050,-70,-70,105,-22,-300
16:07:53.076,,-314,217,968,-1260,-350,-350,111,-28,-292
16:07:53.095,,-314,220,967,-1330,-840,-630,109,-19,-295
16:07:53.114,,-317,217,966,-1470,-1610,-980,100,-25,-292
16:07:53.133,,-320,220,970,-1120,-2240,-1190,105,-28,-298
16:07:53.151,,-318,220,976,-910,-2730,-1190,114,-19,-306
16:07:53.170,,-313,216,986,-560,-3010,-1400,114,-24,-300
16:07:53.189,,-314,217,985,-210,-2940,-1680,108,-22,-298
16:07:53.208,,-318,216,989,210,-2450,-1540,106,-28,-300
16:07:53.226,,-319,215,988,-70,-2100,-1470,115,-24,-297
16:07:53.245,,-320,214,988,-140,-1470,-1400,114,-31,-306
16:07:53.264,,-322,214,987,-420,-1050,-1400,105,-27,-301
16:07:53.283,,-322,211,985,-560,-700,-1470,108,-22,-312
16:07:53.302,,-325,212,982,-630,-280,-1330,112,-22,-303
16:07:53.320,,-326,211,979,-910,70,-1190,115,-30,-298
16:07:53.339,,-328,206,977,-1260,0,-1050,114,-27,-304
16:07:53.358,,-330,208,973,-700,-280,-980,108,-24,-295
16:07:53.377,,-327,209,975,-630,-630,-840,112,-24,-292
16:07:53.395,,-321,203,978,-770,-1120,-700,114,-30,-301
16:07:53.414,,-319,204,982,-420,-910,-490,108,-21,-304
16:07:53.433,,-321,208,983,-490,-560,-140,109,-24,-303
16:07:53.452,,-318,206,987,-910,-560,70,112,-25,-301
16:07:53.471,,-315,207,983,-980,-490,-70,109,-25,-301
16:07:53.489,,-313,209,985,-700,-140,70,108,-19,-303
16:07:53.508,,-314,210,990,-700,140,140,108,-28,-306
16:07:53.527,,-314,211,987,-560,140,140,106,-27,-298
16:07:53.546,,-315,218,985,-210,140,0,115,-19,-294
16:07:53.564,,-315,216,980,-210,210,-140,111,-25,-301
16:07:53.583,,-319,216,984,0,140,-210,114,-22,-312
16:07:53.602,,-318,216,983,210,-210,-350,106,-27,-295
16:07:53.621,,-317,216,980,490,-420,-630,117,-21,-301
16:07:53.640,,-315,216,978,210,-420,-980,105,-24,-303
16:07:53.658,,-318,210,981,-70,-210,-1120,105,-24,-303
16:07:53.677,,-318,210,981,-70,-210,-1120,117,-30,-291
16:07:53.696,,-320,207,983,140,-280,-1120,114,-30,-295
16:07:53.715,,-321,207,985,560,-490,-1050,115,-21,-297
16:07:53.733,,-319,210,983,490,-700,-910,106,-22,-300
16:07:53.752,,-317,210,982,350,-490,-700,112,-24,-295
16:07:53.771,,-317,211,980,350,-210,-700,115,-25,-295
16:07:53.790,,-320,213,981,350,280,-770,111,-28,-300
16:07:53.809,,-321,213,975,140,490,-840,109,-25,-304
16:07:53.827,,-321,209,975,-210,420,-770,111,-25,-313
16:07:53.846,,-322,208,973,-70,280,-770,109,-21,-295
16:07:53.865,,-323,209,971,70,70,-700,111,-27,-300
16:07:53.884,,-322,210,970,-210,-210,-630,105,-25,-286
16:07:53.902,,-322,209,974,-560,-280,-280,109,-24,-294
16:07:53.921,,-325,209,976,-700,-630,-210,111,-30,-300
16:07:53.940,,-323,212,978,-140,-980,-280,111,-28,-295
16:07:53.959,,-322,220,978,-70,-840,-490,106,-28,-304
16:07:53.978,,-322,213,981,-1120,-350,-420,108,-28,-288
16:07:53.996,,-326,210,985,-1260,-210,-280,117,-34,-301
16:07:54.015,,-325,211,983,-420,-350,-280,108,-21,-300
16:07:54.034,,-325,216,980,70,-210,-280,102,-22,-304
16:07:54.053,,-325,214,980,-420,-70,-210,103,-22,-292
16:07:54.071,,-326,213,981,-420,0,-70,105,-24,-303
16:07:54.090,,-323,213,979,-140,-140,-140,118,-19,-297
16:07:54.109,,-324,214,979,-70,-70,-140,109,-21,-300
16:07:54.128,,-323,211,977,-210,-280,-140,111,-24,-303
16:07:54.147,,-324,211,980,70,-140,-70,108,-24,-303
16:07:54.165,,-323,214,979,70,-140,-70,114,-24,-306
16:07:54.184,,-320,212,980,-70,70,0,111,-28,-300
16:07:54.203,,-319,212,979,-350,140,-70,106,-21,-301
16:07:54.222,,-320,212,976,-350,350,-70,114,-25,-303
16:07:54.240,,-323,213,976,-350,420,-70,106,-24,-300
16:07:54.259,,-322,211,975,-350,350,-140,109,-21,-291
16:07:54.278,,-325,214,974,-490,280,-70,117,-24,-291
16:07:54.297,,-326,213,974,-490,140,140,108,-27,-294
16:07:54.316,,-325,216,973,-490,70,210,108,-22,-306
16:07:54.334,,-325,216,973,-560,-70,280,112,-21,-289
16:07:54.353,,-323,216,976,-490,-280,70,106,-27,-300
16:07:54.372,,-322,216,975,-630,-350,-210,109,-30,-306
16:07:54.391,,-322,213,977,-700,-490,-350,114,-27,-294
16:07:54.409,,-322,214,979,-770,-490,-350,112,-27,-291
16:07:54.428,,-321,214,979,-910,-560,-350,111,-24,-297
16:07:54.447,,-321,213,977,-1050,-490,-490,108,-18,-300
16:07:54.466,,-323,214,979,-840,-140,-490,108,-21,-292
16:07:54.485,,-325,214,977,-980,-140,-560,105,-24,-298
16:07:54.503,,-325,213,976,-840,-280,-490,105,-25,-295
16:07:54.522,,-327,215,978,-560,-630,-420,114,-25,-297
16:07:54.541,,-325,215,976,-490,-910,-490,112,-28,-297
16:07:54.560,,-323,217,980,-350,-910,-560,115,-25,-295
16:07:54.578,,-326,217,981,-350,-840,-700,114,-25,-306
16:07:54.597,,-329,216,983,-140,-770,-910,114,-25,-306
16:07:54.616,,-330,216,983,0,-770,-1120,106,-19,-304
16:07:54.635,,-329,213,980,-140,-770,-1050,112,-21,-300
16:07:54.654,,-329,212,981,0,-560,-770,112,-24,-298
16:07:54.672,,-329,212,981,70,-490,-630,106,-21,-295
16:07:54.691,,-329,212,976,70,-420,-700,109,-19,-289
16:07:54.710,,-330,212,976,-70,-350,-630,114,-18,-301
16:07:54.729,,-329,209,976,-210,-560,-560,117,-27,-306
16:07:54.747,,-327,209,976,140,-630,-560,111,-18,-304
16:07:54.766,,-328,212,974,70,-350,-560,105,-25,-306
16:07:54.785,,-328,207,974,-560,-280,-490,111,-24,-298
16:07:54.804,,-327,207,971,-700,-350,-490,109,-19,-294
16:07:54.823,,-328,212,970,-420,-210,-350,108,-25,-301
16:07:54.841,,-328,212,975,-770,-280,-140,114,-25,-298
16:07:54.860,,-329,211,978,-980,-490,-70,111,-25,-297
16:07:54.879,,-326,213,979,-700,-560,-210,111,-27,-297
16:07:54.898,,-325,216,980,-700,-350,-490,112,-24,-294
16:07:54.916,,-325,213,981,-1190,-140,-490,109,-22,-294
16:07:54.935,,-324,210,978,-1190,140,-630,112,-28,-295
16:07:54.954,,-324,214,977,-1050,490,-560,115,-21,-301
16:07:54.973,,-326,210,976,-1330,630,-490,106,-25,-301
16:07:54.992,,-329,209,975,-1190,420,-490,105,-24,-292
16:07:55.010,,-326,212,973,-770,-140,-490,111,-22,-303
16:07:55.029,,-323,211,974,-560,-560,-280,117,-16,-301
16:07:55.048,,-323,213,982,-350,-700,0,115,-18,-301
16:07:55.067,,-323,212,981,-420,-840,-70,109,-25,-300
16:07:55.085,,-324,214,985,-210,-700,-70,109,-18,-303
16:07:55.104,,-324,213,986,-70,-700,-140,108,-28,-301
16:07:55.123,,-324,216,981,70,-630,-420,111,-25,-297
16:07:55.142,,-324,216,979,140,-350,-420,112,-22,-297
16:07:55.161,,-325,216,980,70,-70,-490,117,-24,-295
16:07:55.179,,-327,213,978,0,0,-700,112,-21,-301
16:07:55.198,,-329,212,974,0,-70,-700,109,-24,-295
16:07:55.217,,-328,210,975,70,-280,-630,108,-24,-307
16:07:55.236,,-326,210,976,280,-420,-490,111,-16,-292
16:07:55.254,,-326,211,979,280,-350,-490,111,-22,-310
16:07:55.273,,-323,209,980,-70,-490,-560,111,-21,-301
16:07:55.292,,-320,213,981,210,-280,-630,108,-15,-295
16:07:55.311,,-320,217,977,420,70,-700,112,-24,-298
16:07:55.324,<gest9_down,,,,,,,,,
16:07:55.330,,-322,221,976,280,420,-910,109,-27,-298
16:07:55.348,,-325,216,975,140,140,-1190,103,-19,-310
16:07:55.367,,-329,215,969,560,-210,-1400,103,-27,-301
16:07:55.386,,-332,214,968,700,-560,-1400,105,-27,-303
16:07:55.405,,-333,209,970,490,-980,-1190,105,-24,-306
16:07:55.423,,-333,211,968,490,-1330,-1190,115,-22,-303
16:07:55.442,,-334,214,971,140,-1400,-1050,100,-18,-303
16:07:55.461,,-334,214,971,140,-1400,-1050,111,-25,-294
16:07:55.480,,-331,209,973,-560,-1540,-1120,111,-16,-297
16:07:55.499,,-330,208,973,-490,-1190,-1190,109,-19,-306
16:07:55.517,,-331,211,974,-420,-770,-1050,102,-22,-298
16:07:55.536,,-334,208,978,-910,-700,-770,102,-22,-298
16:07:55.555,,-333,208,981,-910,-840,-770,111,-24,-292
16:07:55.574,,-330,212,978,-560,-840,-840,112,-19,-304
16:07:55.592,,-332,213,978,-280,-700,-630,109,-24,-301
16:07:55.611,,-337,214,978,-280,-630,-280,111,-24,-307
16:07:55.630,,-339,214,979,-210,-840,0,109,-22,-300
16:07:55.649,,-338,211,978,140,-1330,210,109,-21,-300
16:07:55.668,,-337,213,980,560,-1540,280,114,-19,-303
16:07:55.686,,-334,210,981,210,-1260,420,112,-24,-303
16:07:55.705,,-331,208,983,-350,-840,630,121,-28,-300
16:07:55.724,,-330,206,985,-140,-560,700,108,-24,-306
16:07:55.743,,-325,211,981,0,-280,630,105,-25,-297
16:07:55.761,,-323,211,982,-420,350,630,117,-24,-288
16:07:55.780,,-319,214,980,-910,840,560,108,-22,-303
16:07:55.799,,-317,219,978,-700,1120,280,103,-22,-304
16:07:55.818,,-319,225,972,-700,980,-350,111,-19,-298
16:07:55.837,,-321,219,974,-490,490,-630,105,-25,-291
16:07:55.855,,-319,218,968,280,-140,-980,108,-24,-297
16:07:55.874,,-319,225,967,1470,-350,-910,105,-21,-297
16:07:55.893,,-322,228,968,1050,-910,-840,111,-22,-301
16:07:55.912,,-324,220,964,560,-1750,-770,112,-25,-306
16:07:55.930,,-327,227,960,1330,-2170,-840,108,-19,-303
16:07:55.949,,-335,232,957,1190,-2380,-910,115,-18,-300
16:07:55.968,,-340,223,961,70,-2940,-1120,109,-24,-297
16:07:55.987,,-345,215,967,-70,-3570,-1400,103,-30,-304
16:07:56.006,,-340,212,974,420,-4060,-1540,112,-19,-297
16:07:56.024,,-337,212,981,420,-3850,-1330,115,-31,-298
16:07:56.043,,-330,211,989,-420,-3080,-1190,112,-22,-292
16:07:56.062,,-327,206,991,-1120,-1890,-1050,109,-28,-304
16:07:56.081,,-325,207,991,-1190,-770,-1050,105,-19,-301
16:07:56.099,,-325,211,986,-1400,280,-840,109,-24,-294
16:07:56.118,,-325,212,980,-1890,770,-560,106,-27,-301
16:07:56.137,,-328,215,974,-1680,840,-420,105,-21,-297
16:07:56.156,,-332,220,970,-1400,350,-280,112,-30,-303
16:07:56.175,,-332,221,970,-1120,-560,-70,112,-24,-306
16:07:56.193,,-327,221,971,-490,-1400,-70,106,-21,-301
16:07:56.212,,-322,224,974,-140,-1750,-210,105,-24,-301
16:07:56.231,,-320,218,979,-420,-1890,-420,109,-22,-304
16:07:56.250,,-315,213,981,-630,-1610,-700,112,-30,-309
16:07:56.268,,-316,210,982,-840,-1120,-700,106,-25,-297
16:07:56.287,,-316,207,982,-1050,-980,-560,108,-19,-292
16:07:56.306,,-322,208,979,-700,-770,-350,115,-19,-298
16:07:56.325,,-320,211,983,-700,-770,-280,114,-21,-298
16:07:56.344,,-320,215,984,-910,-770,-350,111,-19,-306
16:07:56.362,,-320,218,985,-840,-490,-490,105,-36,-295
16:07:56.381,,-320,223,982,-840,-210,-840,106,-28,-298
16:07:56.400,,-319,222,982,-1050,0,-1190,108,-22,-294
16:07:56.419,,-318,221,984,-980,70,-1610,111,-24,-298
