Sensors' Acquisition [Hz]: Acc@52.0 Gyro@52.0 Mag@52.0 
hh:mm:ss.ms, Annotation , AccX [mg], AccY, AccZ, GyroX [mdps], GyroY, GyroZ, MagX [mgauss], MagY, MagZ
00:01:25.930,,-24,-407,1053,-700,-2450,-1890,376,-769,-454
00:01:25.948,,-32,-411,1056,-2660,-3010,-1680,390,-762,-465
00:01:25.967,,-53,-407,1033,-4410,-7280,-1890,384,-763,-477
00:01:25.985,,-36,-428,1079,-1540,-7700,-1120,406,-762,-483
00:01:26.004,,-28,-421,1070,-3010,-5740,-1470,399,-768,-487
00:01:26.022,,-26,-433,1007,-6370,-7420,-2660,390,-750,-484
00:01:26.041,,-37,-437,978,-4690,-7070,-2660,381,-741,-495
00:01:26.059,,-54,-414,963,-1470,-5460,-2450,378,-745,-481
00:01:26.078,,-58,-410,943,-910,-4760,-2310,367,-742,-486
00:01:26.096,,-60,-403,920,-1050,-2800,-2450,360,-732,-483
00:01:26.115,,-58,-394,884,-2450,-2800,-2590,348,-733,-472
00:01:26.133,,-62,-383,866,-1610,-3220,-2030,337,-727,-469
00:01:26.152,,-28,-372,933,1470,-2800,-1540,337,-727,-468
00:01:26.170,,-22,-381,991,1610,-980,-1890,337,-727,-468
00:01:26.189,,-42,-403,983,-1400,-1750,-3080,324,-730,-457
00:01:26.207,,-57,-426,961,-2310,-1890,-3710,328,-733,-462
00:01:26.226,,-31,-409,989,-840,-1890,-2100,331,-736,-465
00:01:26.244,,-26,-402,971,-1260,-1330,-980,336,-735,-463
00:01:26.263,,-44,-377,941,-2240,-2520,-700,337,-735,-460
00:01:26.281,,-43,-398,976,-1890,-3640,-840,342,-739,-459
00:01:26.300,,-27,-413,1034,-1470,-2310,-700,342,-745,-456
00:01:26.318,,-25,-405,1011,-2520,-2660,-420,343,-738,-465
00:01:26.337,,-33,-403,979,-2520,-2800,-1050,349,-738,-459
00:01:26.355,,-38,-379,965,-2450,-2100,-1120,343,-741,-459
00:01:26.374,,-22,-366,958,-4060,-700,-770,340,-742,-462
00:01:26.392,,-33,-376,946,-5180,1750,70,343,-748,-451
00:01:26.411,,-35,-391,954,-4340,3010,70,348,-739,-454
00:01:26.429,,-46,-410,973,-3850,2590,-280,342,-750,-454
00:01:26.448,,-40,-412,1009,-2730,2800,-980,345,-744,-454
00:01:26.466,,-30,-408,1007,-3010,4550,-2030,343,-750,-456
00:01:26.485,,-30,-408,1007,-5670,5180,-2590,351,-742,-445
00:01:26.503,,-49,-413,970,-5670,5180,-2590,342,-747,-450
00:01:26.522,,-50,-423,957,-6300,3360,-2590,360,-750,-456
00:01:26.540,,-55,-411,963,-2310,3150,-1960,354,-753,-450
00:01:26.559,,-65,-387,953,-1190,3500,-2870,352,-756,-460
00:01:26.577,,-70,-406,936,-4900,1890,-3430,357,-759,-456
00:01:26.596,,-67,-421,927,-5460,140,-3780,366,-760,-463
00:01:26.614,,-59,-435,951,-2100,-840,-3500,366,-760,-463
00:01:26.633,,-38,-451,965,-770,-1400,-3220,373,-763,-466
00:01:26.651,,-49,-450,960,-1890,-910,-2800,375,-780,-478
00:01:26.670,,-76,-443,961,-1890,-1890,-1960,376,-771,-487
00:01:26.688,,-49,-418,1020,1750,-3360,-980,376,-766,-493
00:01:26.706,,-33,-413,1036,2170,-1400,-420,391,-751,-499
00:01:26.725,,-46,-409,992,-1330,-280,-980,369,-756,-498
00:01:26.743,,-56,-415,992,-4480,70,-1470,354,-738,-486
00:01:26.762,,-58,-422,993,-3990,490,-1820,349,-736,-492
00:01:26.780,,-58,-411,968,-3780,2030,-1890,342,-735,-489
00:01:26.799,,-66,-416,941,-5040,1120,-1820,339,-732,-481
00:01:26.817,,-58,-422,963,-4620,-140,-1050,333,-727,-471
00:01:26.836,,-61,-423,978,-3220,-1120,-630,318,-736,-471
00:01:26.854,,-60,-431,980,-3150,-1820,-560,328,-733,-472
00:01:26.873,,-45,-441,1001,-2520,-2520,-560,325,-738,-472
00:01:26.891,,-46,-425,1006,-2520,-840,-210,325,-724,-468
00:01:26.910,,-57,-427,997,-3850,980,-70,330,-729,-465
00:01:26.928,,-44,-438,1018,-4550,2170,70,328,-733,-460
00:01:26.947,,-33,-449,1034,-4410,3640,-140,328,-730,-465
00:01:26.965,,-45,-435,1040,-1890,5880,-560,322,-727,-453
00:01:26.984,,-46,-451,1050,-1680,8050,490,336,-735,-462
00:01:27.002,,-38,-479,1052,-2870,10220,1820,330,-726,-462
00:01:27.021,,-49,-483,1030,-2380,14490,3430,337,-729,-459
00:01:27.039,,-75,-493,1011,-1120,19180,5180,337,-729,-459
00:01:27.058,,-76,-465,1022,210,22260,6930,346,-721,-456
00:01:27.076,,-96,-468,1001,-980,23660,9380,345,-720,-450
00:01:27.095,,-83,-483,1006,-1610,23940,11830,348,-709,-459
00:01:27.113,,-104,-480,986,-1260,24570,14350,343,-709,-459
00:01:27.132,,-121,-460,962,-770,25550,16590,346,-697,-456
00:01:27.150,,-163,-441,923,-770,26600,18550,345,-700,-453
00:01:27.169,,-173,-427,923,70,25690,20020,349,-699,-456
00:01:27.187,,-185,-405,908,770,24290,20020,340,-682,-456
00:01:27.206,,-209,-378,888,770,22610,19250,336,-682,-460
00:01:27.224,,-210,-363,892,140,19180,18410,334,-681,-454
00:01:27.243,,-214,-355,878,-910,15750,16590,342,-688,-448
00:01:27.261,,-228,-348,872,-140,13300,14140,349,-682,-448
00:01:27.280,,-234,-350,885,770,10220,11830,346,-678,-451
00:01:27.298,,-231,-343,895,840,6650,8960,360,-676,-459
00:01:27.317,,-247,-334,876,140,4060,6300,357,-664,-457
00:01:27.335,,-243,-325,880,-560,770,3850,355,-666,-457
00:01:27.354,,-240,-341,887,-1890,-2240,1820,346,-672,-460
00:01:27.372,,-224,-358,902,-2450,-4620,-1050,363,-675,-465
00:01:27.391,,-226,-368,930,-1470,-7280,-2800,360,-666,-460
00:01:27.409,,-208,-375,955,-770,-9940,-3850,354,-666,-463
00:01:27.428,,-205,-389,966,-1050,-10780,-4410,352,-676,-463
00:01:27.446,,-198,-400,984,-1330,-10290,-4970,354,-675,-465
00:01:27.465,,-186,-412,1004,-1750,-9240,-4270,354,-675,-462
00:01:27.483,,-180,-422,994,-2450,-7070,-3360,354,-675,-462
00:01:27.502,,-186,-419,983,-2380,-4130,-2030,357,-673,-460
00:01:27.520,,-189,-423,982,-2240,-2870,-700,352,-676,-454
00:01:27.539,,-187,-405,969,-1540,-2240,350,345,-678,-456
00:01:27.557,,-209,-399,951,-490,-1680,1120,360,-673,-462
00:01:27.576,,-189,-383,969,210,-2240,1470,352,-676,-462
00:01:27.594,,-196,-388,961,-350,-2030,1540,355,-682,-465
00:01:27.613,,-194,-383,962,-350,-1610,1190,349,-684,-468
00:01:27.631,,-192,-381,980,-420,-1890,560,354,-685,-468
00:01:27.650,,-181,-383,970,-910,-1610,-490,357,-679,-468
00:01:27.668,,-201,-389,952,-1260,700,-1260,366,-682,-478
00:01:27.687,,-213,-401,980,-1610,770,-1050,357,-675,-475
00:01:27.705,,-187,-408,993,-910,-700,630,354,-676,-478
00:01:27.724,,-194,-411,972,700,630,1540,349,-672,-472
00:01:27.742,,-205,-413,977,560,2450,770,339,-670,-468
00:01:27.761,,-206,-435,1003,-910,2940,1050,337,-663,-465
00:01:27.779,,-192,-436,996,-70,3920,2310,328,-657,-469
00:01:27.798,,-204,-424,983,1330,6860,3360,328,-654,-463
00:01:27.816,,-204,-424,983,1330,6860,3360,322,-655,-459
00:01:27.835,,-216,-418,988,420,8540,4620,315,-661,-459
00:01:27.853,,-211,-422,977,-910,10010,5950,303,-663,-448
00:01:27.872,,-232,-400,960,420,12320,8120,306,-663,-436
00:01:27.890,,-220,-380,971,1190,12950,9170,322,-663,-435
00:01:27.909,,-219,-373,944,70,14280,8890,322,-663,-435
00:01:27.927,,-225,-358,936,-560,16310,8470,330,-672,-450
00:01:27.946,,-254,-362,945,-770,17500,7210,348,-661,-463
00:01:27.964,,-236,-362,950,-700,16870,7000,343,-648,-462
00:01:27.983,,-246,-353,926,0,18900,5530,349,-642,-468
00:01:28.001,,-249,-339,942,-280,19600,4130,348,-646,-463
00:01:28.020,,-243,-342,943,-2450,19740,2660,345,-633,-463
00:01:28.038,,-200,-338,930,-4340,20790,910,342,-633,-456
00:01:28.057,,-211,-364,932,-6510,23940,-2240,339,-634,-468
00:01:28.075,,-199,-370,918,-10430,27160,-6160,345,-622,-462
00:01:28.094,,-204,-368,874,-16520,32340,-7140,352,-630,-453
00:01:28.112,,-197,-396,791,-28140,38500,-7000,348,-625,-454
00:01:28.131,,-245,-410,721,-37100,43680,-4830,351,-612,-439
00:01:28.149,,-296,-435,697,-38990,43120,980,360,-612,-439
00:01:28.168,,-345,-401,705,-36190,36960,7140,355,-612,-439
00:01:28.186,,-393,-391,693,-28980,24850,13440,354,-613,-444
00:01:28.205,,-423,-336,730,-15470,11130,15750,354,-607,-445
00:01:28.223,,-445,-309,790,-6580,-2030,14910,349,-600,-438
00:01:28.242,,-471,-292,847,-3780,-14770,12180,355,-613,-435
00:01:28.260,,-503,-254,903,-3360,-24780,8960,357,-615,-444
00:01:28.279,,-518,-254,924,-4410,-29610,6930,354,-609,-436
00:01:28.297,,-496,-302,900,-6790,-29680,5950,346,-615,-435
00:01:28.316,,-427,-360,901,-6020,-28280,5390,357,-615,-438
00:01:28.334,,-355,-431,915,-4130,-25480,3500,351,-609,-433
00:01:28.353,,-304,-453,915,-2940,-21140,840,351,-609,-433
00:01:28.371,,-283,-458,912,-1820,-16520,-630,346,-610,-444
00:01:28.390,,-275,-461,931,-2520,-13090,560,348,-624,-436
00:01:28.408,,-300,-448,937,-2240,-10430,2870,355,-615,-430
00:01:28.427,,-317,-428,918,-70,-8190,3990,345,-613,-432
00:01:28.445,,-327,-403,914,2240,-6440,4270,348,-618,-426
00:01:28.464,,-340,-390,918,4410,-5950,4130,349,-606,-432
00:01:28.482,,-363,-406,896,5740,-5670,3710,342,-609,-430
00:01:28.501,,-389,-390,904,8750,-5740,3500,334,-610,-430
00:01:28.519,,-388,-397,926,7980,-6720,5040,327,-613,-423
00:01:28.538,,-366,-399,932,4060,-7700,6860,331,-612,-424
00:01:28.556,,-343,-420,907,-70,-7350,8680,334,-628,-426
00:01:28.575,,-317,-431,878,70,-4830,10150,348,-633,-435
00:01:28.593,,-303,-408,839,840,-490,12390,370,-633,-453
00:01:28.612,,-298,-376,804,-2170,4270,15960,375,-627,-457
00:01:28.630,,-288,-358,779,-12040,7350,19950,369,-606,-456
00:01:28.649,,-279,-351,758,-23660,8890,23030,364,-606,-448
00:01:28.667,,-272,-365,738,-32550,8890,23940,367,-601,-444
00:01:28.686,,-260,-377,744,-36820,7070,23450,363,-595,-430
00:01:28.704,,-245,-383,775,-36400,3640,21840,370,-585,-433
00:01:28.723,,-247,-358,796,-30940,0,19530,381,-585,-429
00:01:28.741,,-280,-336,807,-26390,-2310,16240,382,-582,-433
00:01:28.760,,-320,-343,852,-27440,-5110,11410,388,-582,-421
00:01:28.778,,-460,-419,970,-26950,-7280,6230,388,-582,-421
00:01:28.797,,-472,-527,966,-23310,-5950,-2380,388,-588,-423
00:01:28.815,,-343,-523,896,-12180,-4480,-10220,388,-588,-420
00:01:28.834,,-305,-452,910,2800,980,-5740,396,-583,-426
00:01:28.852,,-313,-429,926,1540,3920,1470,403,-573,-420
00:01:28.871,,-336,-462,907,-6440,4200,3290,402,-573,-423
00:01:28.889,,-334,-496,852,-3290,6020,1330,405,-565,-418
00:01:28.908,,-325,-443,849,6580,7560,-1890,406,-559,-436
00:01:28.926,,-371,-424,856,12110,9520,-3010,403,-562,-433
00:01:28.945,,-382,-430,814,8400,9800,-5110,408,-558,-442
00:01:28.963,,-359,-452,814,6370,8050,-7630,400,-562,-442
00:01:28.982,,-372,-457,819,9800,6510,-8750,394,-562,-444
00:01:29.000,,-401,-441,792,11970,4340,-9100,385,-565,-444
00:01:29.019,,-416,-437,788,14490,840,-8260,376,-564,-445
00:01:29.037,,-429,-418,804,17080,-910,-6720,384,-571,-453
00:01:29.056,,-426,-401,812,17010,-1750,-5460,370,-568,-448
00:01:29.074,,-410,-392,841,15330,-3920,-4690,369,-577,-459
00:01:29.093,,-398,-397,863,13440,-6230,-4620,369,-568,-466
00:01:29.111,,-370,-382,882,13650,-8960,-5600,360,-579,-457
00:01:29.130,,-370,-382,882,14700,-10500,-6020,349,-582,-459
00:01:29.148,,-351,-364,909,14700,-10500,-6020,349,-582,-465
00:01:29.167,,-364,-365,931,14420,-10570,-6790,352,-586,-457
00:01:29.185,,-365,-368,908,12950,-9240,-8260,348,-594,-460
00:01:29.204,,-335,-371,905,12810,-7210,-9170,348,-594,-460
00:01:29.222,,-334,-364,938,13440,-4550,-8470,352,-597,-471
00:01:29.241,,-358,-377,934,11550,-770,-8330,354,-603,-478
00:01:29.259,,-342,-385,912,8050,1190,-9170,360,-607,-493
00:01:29.278,,-316,-373,918,4340,2940,-8400,354,-612,-498
00:01:29.296,,-345,-381,911,140,4690,-6440,342,-594,-505
00:01:29.315,,-364,-402,873,-3430,5950,-6020,340,-583,-501
00:01:29.333,,-349,-405,868,-1400,5810,-5670,327,-591,-496
00:01:29.352,,-381,-387,875,1190,6930,-4340,325,-586,-490
00:01:29.370,,-380,-396,842,-1260,5810,-3640,330,-589,-492
00:01:29.389,,-361,-388,841,-2170,3990,-2240,319,-591,-483
00:01:29.407,,-370,-383,847,-2240,2940,-280,321,-586,-484
00:01:29.426,,-383,-378,839,-3220,1820,350,331,-585,-483
00:01:29.444,,-376,-373,836,-3430,980,210,328,-588,-480
00:01:29.463,,-386,-362,859,-2800,280,210,330,-585,-480
00:01:29.481,,-408,-372,858,-3080,-560,-210,328,-588,-483
00:01:29.500,,-384,-376,866,-2590,-2170,-1890,324,-588,-466
00:01:29.518,,-366,-363,879,-1960,-2870,-2870,328,-589,-478
00:01:29.537,,-377,-368,890,-3010,-3150,-2310,322,-594,-472
00:01:29.555,,-371,-389,878,-5110,-2520,-2590,336,-594,-471
00:01:29.574,,-373,-399,905,-4200,-1540,-3710,327,-597,-471
00:01:29.592,,-376,-401,892,-3430,-210,-4480,330,-595,-471
00:01:29.611,,-379,-408,890,-3010,210,-3710,324,-592,-474
00:01:29.629,,-376,-409,890,-3080,140,-2520,340,-600,-468
00:01:29.648,,-388,-421,888,-2660,-70,-2170,340,-600,-468
00:01:29.666,,-382,-414,875,-1750,-280,-2310,333,-597,-474
00:01:29.685,,-378,-407,886,-1330,-840,-1680,333,-597,-471
00:01:29.703,,-398,-401,895,-1190,-2450,-1050,322,-598,-475
00:01:29.722,,-412,-410,890,-840,-3360,-1400,327,-594,-481
00:01:29.740,,-384,-395,899,-70,-4830,-2310,327,-589,-472
00:01:29.759,,-388,-393,912,-630,-5320,-1960,324,-604,-472
00:01:29.777,,-390,-409,913,-2660,-5950,-1750,325,-604,-468
00:01:29.796,,-392,-409,917,-1750,-5250,-1820,316,-607,-472
00:01:29.814,,-381,-408,925,-1050,-4480,-1960,312,-609,-468
00:01:29.833,,-381,-407,940,-1120,-4130,-1680,318,-616,-456
00:01:29.851,,-378,-420,926,-1610,-3710,-1890,319,-616,-457
00:01:29.870,,-376,-404,935,-350,-3010,-2240,312,-627,-465
00:01:29.888,,-382,-415,926,-350,-1890,-2310,319,-625,-474
00:01:29.907,,-371,-405,921,-910,-1890,-2240,318,-616,-462
00:01:29.925,,-389,-415,923,-490,-770,-1890,324,-619,-463
00:01:29.944,,-397,-410,923,-980,-490,-2310,322,-628,-462
00:01:29.962,,-383,-427,911,-1190,-210,-2800,306,-616,-465
00:01:29.981,,-373,-414,924,-140,-840,-2450,309,-624,-466
00:01:29.999,,-405,-405,928,560,-560,-1470,304,-621,-460
00:01:30.018,,-398,-420,911,-1260,-280,-1890,289,-625,-451
00:01:30.036,,-370,-409,917,-1050,630,-1960,288,-631,-456
00:01:30.055,,-387,-406,926,-1050,1260,-350,285,-625,-460
00:01:30.073,,-399,-408,903,-2520,1680,-70,285,-625,-460
00:01:30.092,,-379,-420,899,-1470,1750,-1120,286,-628,-447
00:01:30.110,,-399,-397,905,350,2660,-1190,279,-633,-445
00:01:30.129,,-415,-412,887,-1330,2450,-770,276,-637,-448
00:01:30.147,,-387,-407,885,-1750,1540,-770,288,-628,-445
00:01:30.166,,-391,-401,896,-560,1260,-560,288,-633,-450
00:01:30.184,,-419,-397,888,-280,840,-910,292,-628,-456
00:01:30.203,,-407,-403,875,-280,490,-1890,277,-637,-459
00:01:30.221,,-393,-398,896,-140,-140,-2170,288,-633,-457
00:01:30.240,,-414,-397,891,-1680,-630,-1750,283,-637,-457
00:01:30.258,,-407,-418,882,-2380,-1610,-2240,267,-628,-456
00:01:30.277,,-410,-402,893,140,-1400,-2660,267,-637,-451
00:01:30.295,,-395,-403,887,-350,-1610,-2590,271,-630,-456
00:01:30.314,,-406,-411,894,-1400,-1400,-2100,265,-639,-448
00:01:30.332,,-401,-415,883,-1960,-770,-2310,267,-636,-445
00:01:30.351,,-401,-410,898,-1050,-70,-2030,276,-625,-442
00:01:30.369,,-406,-418,889,-1680,-350,-1890,273,-640,-447
00:01:30.388,,-397,-424,890,-1330,-1190,-2310,277,-630,-445
00:01:30.406,,-407,-411,890,-210,-910,-2170,261,-631,-447
00:01:30.425,,-406,-418,887,-910,-770,-2100,270,-637,-445
00:01:30.443,,-411,-418,884,-1330,70,-1820,262,-633,-432
00:01:30.462,,-411,-418,884,-1330,70,-1820,267,-630,-433
00:01:30.480,,-400,-423,889,-1680,-350,-1820,250,-643,-423
00:01:30.499,,-427,-419,892,-770,-140,-1330,253,-642,-418
00:01:30.517,,-410,-426,873,-1540,-490,-1610,253,-642,-418
00:01:30.536,,-396,-408,888,-700,-280,-1330,261,-649,-408
00:01:30.554,,-412,-419,879,-1820,-420,-840,279,-651,-423
00:01:30.573,,-423,-414,882,-1820,-840,-1330,289,-655,-435
00:01:30.591,,-435,-432,877,-770,-350,-2170,294,-640,-448
00:01:30.610,,-406,-424,884,-560,-1470,-2940,294,-642,-453
00:01:30.628,,-418,-433,893,-140,-1960,-1260,285,-633,-456
00:01:30.647,,-420,-431,889,-1610,-3150,-1190,288,-634,-454
00:01:30.665,,-417,-441,892,-1400,-2730,-1610,289,-634,-450
00:01:30.684,,-413,-422,889,-420,-1820,-1050,294,-628,-451
00:01:30.702,,-406,-420,878,-1120,-1680,140,289,-633,-445
00:01:30.721,,-412,-423,878,-1610,-2030,490,292,-628,-456
00:01:30.739,,-424,-409,873,-210,-2240,-420,291,-627,-454
00:01:30.758,,-430,-420,874,910,-2660,-980,294,-624,-451
00:01:30.776,,-421,-414,882,840,-3710,-1750,288,-637,-451
00:01:30.795,,-412,-441,889,70,-4480,-2100,285,-636,-453
00:01:30.813,,-411,-428,888,-70,-4200,-2100,276,-639,-451
00:01:30.832,,-420,-434,888,-1120,-2940,-1610,289,-628,-436
00:01:30.850,,-410,-434,872,-2100,-2100,-1260,280,-625,-448
00:01:30.869,,-418,-428,886,-1330,-1610,-490,295,-624,-450
00:01:30.887,,-434,-425,880,-910,-1890,-280,294,-634,-448
00:01:30.906,,-419,-422,869,-770,-2310,-630,289,-630,-448
00:01:30.924,,-412,-427,878,-350,-2380,-910,283,-634,-454
00:01:30.943,,-419,-433,876,-840,-2520,-1400,283,-634,-454
00:01:30.961,,-412,-431,881,-630,-2870,-1820,289,-637,-454
00:01:30.980,,-421,-424,883,70,-2170,-1470,289,-622,-459
00:01:30.998,,-416,-437,872,-280,-2030,-1190,298,-622,-462
00:01:31.017,,-423,-428,881,770,-1610,-980,300,-627,-462
00:01:31.035,,-420,-423,880,840,-2100,-1190,289,-619,-469
00:01:31.054,,-420,-420,873,280,-2660,-1330,285,-618,-462
00:01:31.072,,-427,-430,883,-70,-2660,-1400,286,-604,-465
00:01:31.091,,-424,-434,880,-350,-2940,-1750,279,-612,-460
00:01:31.109,,-420,-429,884,0,-2870,-1890,270,-612,-459
00:01:31.128,,-418,-431,879,-630,-3220,-1960,259,-610,-448
00:01:31.146,,-433,-436,878,-980,-2660,-1960,250,-618,-447
00:01:31.165,,-423,-441,885,-1400,-2520,-2030,247,-622,-436
00:01:31.183,,-420,-441,887,-700,-1680,-1680,253,-627,-427
00:01:31.202,,-417,-444,889,-1190,-1470,-1400,268,-643,-433
00:01:31.220,,-433,-445,890,-840,-910,-1610,286,-643,-454
00:01:31.239,,-415,-447,875,-560,-770,-2310,301,-636,-460
00:01:31.257,,-406,-430,881,420,-980,-1610,294,-636,-472
00:01:31.276,,-432,-431,881,420,-1750,-490,288,-630,-463
00:01:31.294,,-445,-427,873,770,-2870,-1050,279,-627,-459
00:01:31.313,,-438,-429,877,1750,-3430,-2170,268,-630,-463
00:01:31.331,,-422,-420,885,910,-4830,-2100,268,-628,-456
00:01:31.350,,-423,-429,872,-490,-5180,-1120,273,-640,-457
00:01:31.368,,-419,-427,880,-700,-4970,-840,271,-631,-457
00:01:31.387,,-421,-426,877,-840,-3220,-1120,271,-631,-457
00:01:31.405,,-413,-435,889,-1960,-2660,-1120,282,-636,-460
00:01:31.424,,-418,-442,879,-1610,-1820,-840,271,-643,-462
00:01:31.442,,-421,-437,887,-280,-1680,-770,283,-633,-459
00:01:31.461,,-417,-421,874,140,-1120,-840,276,-640,-460
00:01:31.479,,-430,-436,880,-1120,-910,-770,276,-640,-447
00:01:31.498,,-430,-433,865,-700,-210,-1190,274,-633,-457
00:01:31.516,,-422,-436,864,-560,-140,-1470,268,-639,-456
00:01:31.535,,-417,-421,861,-840,-560,-1120,273,-634,-451
00:01:31.553,,-422,-434,850,-1540,-910,-910,268,-624,-462
00:01:31.572,,-414,-424,846,-140,-1330,-980,274,-633,-451
00:01:31.590,,-417,-407,857,1050,-2100,-280,277,-621,-453
00:01:31.609,,-435,-406,861,910,-3430,140,280,-628,-445
00:01:31.627,,-445,-416,860,1190,-4270,-630,265,-630,-456
00:01:31.646,,-421,-423,870,910,-5180,-2240,256,-637,-454
00:01:31.664,,-422,-420,885,0,-5670,-2100,268,-628,-460
00:01:31.683,,-430,-444,880,-2590,-5530,-1890,265,-642,-459
00:01:31.701,,-414,-438,887,-3500,-4200,-2100,262,-642,-456
00:01:31.720,,-412,-447,879,-3010,-2240,-1400,264,-633,-456
00:01:31.738,,-442,-437,891,-1890,-1260,-210,267,-633,-460
00:01:31.757,,-429,-456,867,-1330,-1050,-700,265,-636,-466
00:01:31.775,,-429,-456,867,420,-1260,-1330,279,-625,-465
00:01:31.794,,-408,-430,883,420,-1260,-1330,262,-621,-451
00:01:31.812,,-425,-439,863,-1540,-770,-1120,262,-621,-451
00:01:31.831,,-413,-440,867,-2940,-1050,-1540,262,-634,-444
00:01:31.849,,-438,-435,864,-490,280,-1190,256,-624,-438
00:01:31.868,,-424,-433,855,-840,-630,-1470,268,-633,-432
00:01:31.886,,-419,-432,859,-280,-1610,-700,282,-654,-441
00:01:31.905,,-448,-437,872,350,-2730,-280,280,-642,-448
00:01:31.923,,-462,-440,868,280,-3500,-1120,285,-648,-451
00:01:31.942,,-433,-462,884,-420,-4550,-2310,280,-639,-462
00:01:31.960,,-426,-448,898,-1120,-5180,-2100,282,-646,-456
00:01:31.979,,-447,-466,909,-2870,-5180,-980,279,-649,-459
00:01:31.997,,-422,-451,889,-3430,-3710,-840,282,-640,-450
00:01:32.016,,-403,-433,883,-2240,-840,-210,274,-636,-459
00:01:32.034,,-429,-430,877,-4130,1120,980,283,-645,-468
00:01:32.053,,-467,-479,862,-4900,2380,-350,282,-643,-469
00:01:32.071,,-451,-475,867,-1050,2450,-2800,288,-637,-471
00:01:32.090,,-410,-467,858,-350,1680,-2240,276,-636,-471
00:01:32.108,,-425,-476,868,-2240,210,70,262,-637,-465
00:01:32.127,,-451,-472,871,-1400,560,140,259,-622,-471
00:01:32.145,,-444,-458,852,560,2100,-910,258,-624,-468
00:01:32.164,,-422,-435,854,560,2240,-980,255,-624,-469
00:01:32.183,>gest2_circle_ccw,,,,,,,,,
00:01:32.183,,-439,-444,860,-840,840,490,250,-630,-466
00:01:32.201,,-503,-450,866,280,210,70,247,-631,-471
00:01:32.219,,-478,-458,848,630,-910,-2450,246,-637,-465
00:01:32.238,,-430,-443,871,630,-2170,-2590,246,-637,-465
00:01:32.256,,-448,-453,873,-1120,-3640,-420,237,-639,-462
00:01:32.275,,-473,-465,865,-1820,-4410,-560,240,-637,-466
00:01:32.293,,-451,-456,843,70,-3570,-2240,238,-631,-459
00:01:32.312,,-418,-432,864,-420,-4550,-1820,243,-636,-453
00:01:32.330,,-468,-463,850,-2310,-5110,0,240,-630,-444
00:01:32.349,,-459,-466,851,-1050,-6440,-350,235,-633,-442
00:01:32.367,,-434,-448,852,2100,-5670,-770,237,-631,-448
00:01:32.386,,-419,-439,869,420,-6790,-140,237,-634,-444
00:01:32.404,,-444,-454,876,-770,-7280,770,235,-627,-451
00:01:32.423,,-442,-450,874,630,-7070,-210,240,-645,-445
00:01:32.441,,-401,-417,867,1120,-6440,-770,241,-642,-457
00:01:32.460,,-401,-414,871,-2030,-6720,770,234,-649,-441
00:01:32.478,,-443,-414,868,-3220,-6720,1330,240,-657,-436
00:01:32.497,,-465,-442,855,-1960,-6020,-560,237,-655,-442
00:01:32.515,,-446,-430,877,-140,-6860,-1470,243,-663,-442
00:01:32.534,,-455,-471,864,-2870,-7560,-490,253,-660,-450
00:01:32.552,,-438,-501,863,-5040,-9240,-70,259,-654,-445
00:01:32.571,,-448,-501,852,-4200,-8680,1540,256,-651,-441
00:01:32.589,,-449,-487,831,-5670,-9240,4970,267,-657,-439
00:01:32.608,,-460,-498,815,-8680,-10780,8820,264,-651,-445
00:01:32.626,,-465,-517,815,-8120,-13090,10010,261,-648,-445
00:01:32.645,,-450,-501,808,-4550,-15050,9660,256,-648,-453
00:01:32.663,,-439,-479,813,-2380,-17780,9940,256,-651,-433
00:01:32.682,,-425,-462,827,-5390,-21070,10850,256,-651,-433
00:01:32.700,,-411,-474,862,-8610,-24640,11270,259,-648,-438
00:01:32.719,,-386,-457,897,-8120,-26880,11060,258,-651,-429
00:01:32.737,,-364,-433,916,-5740,-27020,10010,259,-655,-423
00:01:32.756,,-350,-394,942,-2800,-25970,7700,258,-646,-432
00:01:32.774,,-362,-347,942,-2870,-23660,4620,259,-645,-441
00:01:32.793,,-371,-298,944,-6160,-21630,210,258,-640,-429
00:01:32.811,,-344,-237,919,-14420,-19320,-4830,255,-651,-430
00:01:32.830,,-332,-166,948,-25970,-19250,-9730,256,-643,-436
00:01:32.848,,-339,-150,986,-37100,-20090,-17010,265,-657,-427
00:01:32.867,,-339,-159,982,-42210,-21420,-29400,271,-666,-427
00:01:32.885,,-295,-203,1007,-37240,-21630,-45290,267,-666,-426
00:01:32.904,,-246,-256,1017,-30730,-17780,-66710,271,-660,-421
00:01:32.922,,-177,-388,1040,-29610,-11480,-91140,264,-690,-418
00:01:32.941,,-150,-550,1106,-32620,-840,-114800,259,-708,-409
00:01:32.959,,-99,-622,1167,-28840,11270,-129850,250,-712,-408
00:01:32.978,,-134,-777,1147,-30730,32760,-128380,252,-721,-406
00:01:32.996,,-142,-939,1110,-46270,50470,-117810,256,-729,-408
00:01:33.015,,-135,-1116,1119,-55160,65030,-98070,259,-739,-409
00:01:33.033,,-144,-1319,1151,-50890,81340,-72730,252,-742,-412
00:01:33.052,,-179,-1377,1118,-32270,95200,-51100,253,-735,-417
00:01:33.070,,-227,-1313,1032,-5600,103530,-30590,246,-727,-421
00:01:33.089,,-299,-1200,906,14770,109410,-9870,246,-723,-421
00:01:33.107,,-299,-1200,906,14770,109410,-9870,246,-723,-421
00:01:33.126,,-368,-1069,814,23660,112000,8750,244,-715,-424
00:01:33.144,,-402,-983,753,23030,111790,24360,231,-700,-424
00:01:33.163,,-431,-906,722,19180,109270,36960,225,-697,-436
00:01:33.181,,-447,-843,703,18410,102900,46830,226,-684,-442
00:01:33.200,,-464,-808,659,20860,95970,53900,235,-682,-454
00:01:33.218,,-468,-761,614,22680,89670,59780,256,-666,-471
00:01:33.237,,-475,-730,572,22540,84350,65660,255,-637,-481
00:01:33.255,,-464,-709,508,16590,79940,72730,250,-616,-487
00:01:33.274,,-490,-700,400,-280,77700,81970,259,-597,-490
00:01:33.292,,-508,-703,292,-21770,73080,93170,262,-570,-478
00:01:33.311,,-537,-672,204,-40810,66010,104160,255,-544,-471
00:01:33.329,,-574,-627,138,-53130,54320,114030,262,-517,-459
00:01:33.348,,-576,-547,73,-55930,37800,120820,268,-501,-453
00:01:33.366,,-570,-432,30,-49840,21490,124320,249,-480,-450
00:01:33.385,,-568,-283,19,-43330,7350,124460,247,-466,-444
00:01:33.403,,-558,-104,41,-51800,-5810,120820,252,-457,-441
00:01:33.422,,-558,-2,45,-82390,-19250,112980,250,-459,-415
00:01:33.440,,-536,27,37,-119770,-32830,98770,259,-448,-408
00:01:33.459,,-515,33,85,-144690,-46620,79240,273,-435,-400
00:01:33.477,,-503,-1,204,-150850,-64470,58310,276,-438,-399
00:01:33.496,,-507,-38,325,-135170,-80850,35910,283,-445,-394
00:01:33.514,,-515,-28,445,-108570,-90860,12110,295,-456,-391
00:01:33.533,,-524,19,537,-87500,-92610,-12040,298,-460,-382
00:01:33.551,,-540,40,583,-86520,-89530,-35700,298,-460,-382
00:01:33.570,,-551,-46,567,-99470,-85120,-56560,304,-480,-363
00:01:33.588,,-529,-303,568,-107940,-83790,-73780,309,-489,-370
00:01:33.607,,-480,-566,622,-99050,-87780,-88130,318,-508,-361
00:01:33.625,,-463,-707,694,-72660,-90230,-99260,327,-516,-349
00:01:33.644,,-447,-705,760,-37170,-92050,-104230,312,-540,-343
00:01:33.662,,-433,-664,820,-16450,-89950,-103180,322,-555,-342
00:01:33.681,,-389,-680,906,-20230,-88200,-100520,337,-579,-346
00:01:33.699,,-320,-782,991,-35490,-85680,-100240,336,-592,-340
00:01:33.718,,-283,-882,1065,-37940,-78260,-102130,352,-613,-340
00:01:33.736,,-233,-1017,1111,-18200,-65520,-101990,343,-621,-337
00:01:33.755,,-208,-1055,1156,14420,-46970,-98490,334,-642,-348
00:01:33.773,,-188,-947,1183,36890,-23590,-93450,330,-651,-357
00:01:33.792,,-193,-941,1137,25060,-630,-82670,331,-666,-352
00:01:33.810,,-190,-997,1079,-5460,15960,-72240,327,-663,-343
00:01:33.829,,-190,-1074,998,-21700,28350,-61880,327,-682,-345
00:01:33.847,,-234,-1098,902,-9450,38430,-51170,339,-693,-339
00:01:33.866,,-301,-1032,821,17640,46130,-42700,345,-699,-346
00:01:33.885,,-359,-958,746,40250,49420,-37380,351,-693,-364
00:01:33.903,,-400,-918,682,50820,48440,-34370,358,-693,-384
00:01:33.922,,-409,-895,634,51100,46270,-32550,351,-694,-387
00:01:33.940,,-418,-878,589,44170,43540,-28770,348,-687,-390
00:01:33.959,,-427,-885,534,32690,39200,-23170,333,-697,-393
00:01:33.977,,-439,-904,483,23520,34580,-16520,333,-697,-393
00:01:33.996,,-441,-911,453,20230,29400,-9380,339,-697,-400
00:01:34.014,,-434,-900,437,22260,23730,-2520,339,-685,-406
00:01:34.032,,-421,-871,436,25200,17920,3780,336,-690,-397
00:01:34.051,,-395,-834,458,25340,11480,8750,336,-682,-409
00:01:34.069,,-369,-801,498,22750,4130,12810,343,-667,-418
00:01:34.088,,-350,-769,548,20860,-3570,16030,325,-678,-421
00:01:34.106,,-343,-726,586,21980,-10430,17780,328,-672,-421
00:01:34.125,,-342,-673,631,25340,-15540,18480,336,-672,-424
00:01:34.143,,-337,-646,687,28490,-18410,18060,333,-670,-420
00:01:34.162,,-338,-610,753,29120,-18550,15610,333,-660,-427
00:01:34.181,,-321,-591,809,24570,-17500,11550,316,-664,-429
00:01:34.199,,-313,-576,833,16870,-15120,7490,316,-657,-432
00:01:34.217,,-319,-583,828,8470,-11200,5110,322,-654,-429
00:01:34.236,,-333,-608,828,2240,-6580,4340,330,-646,-435
00:01:34.255,,-340,-633,825,-2450,-2660,3640,328,-661,-433
00:01:34.273,,-349,-660,807,-4830,350,3360,330,-661,-429
00:01:34.292,,-363,-671,781,-5180,2450,3640,322,-661,-424
00:01:34.310,,-371,-681,755,-5390,3570,4340,334,-660,-424
00:01:34.329,,-376,-693,740,-6370,3920,4830,333,-661,-420
00:01:34.347,,-381,-700,734,-6790,3850,5320,340,-657,-421
00:01:34.366,,-383,-701,729,-6930,3360,5530,336,-649,-426
00:01:34.384,,-381,-698,717,-6930,2660,5530,337,-654,-423
00:01:34.403,,-377,-697,719,-6790,1750,5740,330,-648,-421
00:01:34.421,,-377,-697,719,-5810,-140,5740,330,-648,-421
00:01:34.440,,-366,-692,736,-5810,-140,5740,342,-648,-417
00:01:34.458,,-360,-681,745,-3990,-2030,5600,334,-654,-415
00:01:34.477,,-357,-664,752,-1540,-3080,5180,333,-657,-418
00:01:34.495,,-355,-651,761,1120,-3150,4620,342,-669,-418
00:01:34.514,,-359,-639,768,1470,-2240,3220,333,-658,-415
00:01:34.532,,-363,-632,764,-1120,-1260,1400,345,-669,-426
00:01:34.551,,-371,-644,751,-5040,-700,-70,351,-667,-429
00:01:34.569,,-376,-659,737,-6790,-560,-1330,346,-660,-427
00:01:34.588,,-377,-674,736,-6090,-770,-2170,343,-655,-433
00:01:34.606,,-378,-684,734,-5460,-1470,-3010,345,-655,-427
00:01:34.625,,-376,-699,736,-5460,-2730,-3710,339,-652,-432
00:01:34.643,,-374,-702,743,-5040,-4130,-3640,336,-654,-426
00:01:34.662,,-376,-706,756,-3500,-5040,-2450,324,-654,-429
00:01:34.680,,-380,-689,768,-1610,-5110,-1330,319,-652,-435
00:01:34.730,,-374,-675,770,-140,-3640,-1610,322,-639,-427
00:01:34.730,,-374,-675,770,-140,-3640,-1610,322,-639,-427
00:01:34.736,,-374,-675,770,-140,-3640,-1610,325,-652,-420
00:01:34.754,,-367,-676,763,-140,-3430,-1960,316,-652,-432
00:01:34.773,,-358,-680,762,70,-2660,-1400,316,-655,-427
00:01:34.791,,-355,-686,758,-490,-1680,-910,303,-646,-426
00:01:34.810,,-357,-689,746,-1610,-980,-1120,295,-651,-424
00:01:34.828,,-363,-683,733,-2030,-700,-1120,291,-646,-417
00:01:34.847,,-368,-677,725,-2240,-770,-420,291,-646,-417
00:01:34.865,,-372,-672,721,-2940,-1260,70,280,-654,-412
00:01:34.884,,-375,-675,722,-3920,-1890,210,283,-654,-415
00:01:34.902,,-376,-678,735,-4410,-2660,140,276,-652,-403
00:01:34.921,,-373,-679,748,-4900,-4060,-280,283,-654,-414
00:01:34.939,,-367,-681,759,-5040,-5670,-1120,286,-658,-405
00:01:34.958,,-362,-681,777,-3990,-6650,-1610,295,-657,-415
00:01:34.976,,-358,-675,789,-3010,-6860,-1540,285,-667,-405
00:01:34.995,,-357,-669,796,-2590,-6230,-1260,282,-675,-399
00:01:35.013,,-356,-670,800,-2310,-5040,-1260,286,-670,-408
00:01:35.032,,-356,-671,802,-2310,-3570,-2100,283,-667,-402
00:01:35.050,,-358,-681,799,-2730,-2380,-3080,286,-666,-405
00:01:35.069,,-361,-687,786,-2590,-1330,-3430,291,-670,-411
00:01:35.087,,-365,-692,772,-2310,-420,-2660,288,-664,-411
00:01:35.105,<gest2_circle_ccw,,,,,,,,,
00:01:35.106,,-366,-694,764,-2380,-420,-1750,288,-664,-403
00:01:35.124,,-368,-694,761,-2170,-1190,-1260,280,-670,-405
00:01:35.143,,-367,-692,767,-1260,-1960,-1190,294,-667,-396
00:01:35.161,,-368,-682,771,-280,-2100,-1120,280,-663,-406
00:01:35.180,,-367,-677,766,-350,-1400,-700,280,-673,-409
00:01:35.198,,-367,-674,757,-980,70,-70,280,-667,-409
00:01:35.217,,-367,-679,748,-1960,1820,490,280,-667,-411
00:01:35.235,,-366,-680,740,-2660,2870,840,274,-666,-412
00:01:35.254,,-362,-681,732,-2940,3080,1120,295,-672,-412
00:01:35.272,,-358,-672,725,-2870,3010,1680,295,-672,-412
00:01:35.291,,-354,-669,721,-3220,2940,2380,297,-673,-409
00:01:35.309,,-357,-665,718,-3990,2870,2660,312,-675,-414
00:01:35.328,,-362,-666,720,-4480,2730,2310,319,-670,-427
00:01:35.346,,-374,-662,721,-4900,2590,1400,315,-670,-432
00:01:35.365,,-382,-661,722,-5110,1960,210,324,-664,-421
00:01:35.383,,-386,-662,723,-4970,770,-770,318,-660,-430
00:01:35.402,,-390,-667,727,-4480,-700,-1260,316,-663,-430
00:01:35.420,,-391,-672,735,-4060,-2240,-1610,316,-660,-427
00:01:35.439,,-394,-675,737,-3780,-3430,-1890,315,-655,-424
00:01:35.457,,-394,-682,750,-3150,-3920,-1750,304,-660,-408
00:01:35.476,,-397,-681,752,-2940,-3850,-1050,303,-663,-414
00:01:35.494,,-401,-683,740,-2730,-3710,210,309,-660,-417
00:01:35.513,,-396,-683,736,-2030,-3990,1260,309,-649,-424
00:01:35.531,,-392,-679,733,-1050,-4620,2100,315,-649,-424
00:01:35.550,,-384,-676,738,-350,-5390,2940,303,-646,-414
00:01:35.568,,-373,-674,746,-210,-6160,3290,303,-643,-414
00:01:35.587,,-370,-669,752,-140,-6440,3290,300,-648,-414
00:01:35.605,,-364,-667,756,210,-6370,3080,289,-645,-405
00:01:35.624,,-354,-659,755,70,-5390,2660,289,-651,-396
00:01:35.642,,-346,-658,752,-700,-3990,2170,301,-651,-400
00:01:35.661,,-342,-658,745,-1820,-2590,1540,303,-658,-391
00:01:35.679,,-347,-663,744,-3010,-1540,840,318,-664,-403
00:01:35.698,,-352,-668,746,-4130,-1400,-350,312,-666,-418
00:01:35.716,,-361,-666,744,-4340,-1680,-1330,312,-666,-418
00:01:35.735,,-369,-657,747,-4270,-2030,-1820,316,-660,-427
00:01:35.753,,-369,-657,747,-4270,-2030,-1820,318,-658,-408
00:01:35.772,,-372,-657,757,-4760,-2730,-2380,295,-660,-414
00:01:35.790,,-376,-658,764,-4550,-3220,-3290,298,-657,-408
00:01:35.809,,-381,-661,767,-3780,-2870,-3710,300,-669,-403
00:01:35.827,,-383,-664,762,-3920,-1960,-3710,310,-657,-406
00:01:35.846,,-384,-677,750,-4550,-700,-3080,304,-652,-414
00:01:35.864,,-384,-691,741,-5110,350,-2380,300,-657,-411
00:01:35.883,,-384,-706,739,-5950,0,-2310,297,-660,-414
00:01:35.901,,-377,-717,750,-5740,-2030,-2380,294,-657,-424
00:01:35.920,,-372,-713,761,-3850,-4130,-1820,312,-657,-420
00:01:35.938,,-371,-698,766,-2170,-4760,-420,312,-655,-424
00:01:35.957,,-374,-678,766,-2100,-3360,1260,312,-652,-421
00:01:35.975,,-378,-671,758,-2940,-1120,2380,325,-652,-430
00:01:35.994,,-383,-671,746,-3220,770,2380,316,-655,-430
00:01:36.012,,-386,-676,734,-3220,1120,1750,325,-651,-433
00:01:36.031,,-383,-685,730,-2870,-70,1190,327,-648,-429
00:01:36.049,,-376,-686,734,-2030,-2030,770,315,-652,-432
00:01:36.068,,-365,-684,744,-980,-4270,420,322,-649,-424
00:01:36.086,,-362,-673,758,-70,-5670,140,309,-657,-420
00:01:36.105,,-366,-663,767,420,-5530,420,318,-649,-418
00:01:36.123,,-369,-656,766,0,-3920,420,309,-651,-420
00:01:36.142,,-371,-655,754,-910,-1820,-70,309,-651,-420
00:01:36.160,,-374,-660,738,-1610,-70,-280,310,-645,-418
00:01:36.179,,-378,-667,725,-2380,560,210,307,-645,-423
00:01:36.197,,-380,-677,723,-2800,-210,560,309,-651,-415
00:01:36.216,,-380,-681,730,-2380,-2170,350,303,-643,-418
00:01:36.234,,-377,-679,742,-1470,-4480,350,294,-651,-409
00:01:36.253,,-372,-667,756,-630,-6160,770,309,-642,-409
00:01:36.271,,-367,-654,765,-350,-6440,1540,297,-649,-406
00:01:36.290,,-364,-644,775,-630,-5320,1820,295,-646,-403
00:01:36.308,,-358,-645,783,-1610,-3850,1050,289,-648,-409
00:01:36.327,,-357,-649,781,-2170,-2240,-70,301,-652,-408
00:01:36.345,,-359,-650,766,-2380,-280,-910,312,-655,-412
00:01:36.364,,-363,-656,749,-3360,1680,-1330,312,-654,-418
00:01:36.382,,-368,-665,735,-4690,2870,-1750,309,-651,-423
00:01:36.401,,-377,-671,711,-5250,3220,-1610,300,-646,-409
00:01:36.419,,-383,-676,699,-5390,2660,-700,309,-651,-418
00:01:36.438,,-383,-680,704,-5530,840,-280,313,-648,-417
00:01:36.456,,-383,-682,722,-5110,-2030,-490,318,-643,-411
00:01:36.475,,-383,-675,741,-3850,-4760,-490,315,-649,-421
00:01:36.494,,-382,-660,757,-2730,-6440,-140,309,-642,-424
00:01:36.512,,-378,-651,768,-2240,-6790,420,319,-642,-435
00:01:36.531,,-375,-650,776,-2520,-6020,210,321,-640,-423
00:01:36.549,,-371,-656,782,-3220,-5250,-840,310,-648,-430
00:01:36.568,,-371,-665,780,-3220,-4830,-1610,315,-648,-424
00:01:36.586,,-371,-673,779,-2310,-4620,-1750,315,-648,-424
00:01:36.605,,-366,-676,782,-1820,-4760,-2030,304,-645,-424
00:01:36.623,,-369,-675,777,-1330,-4550,-2170,307,-643,-426
00:01:36.642,,-374,-669,764,-840,-3220,-1260,315,-625,-429
00:01:36.660,,-375,-668,755,-1470,-1540,-70,318,-630,-426
00:01:36.679,,-365,-677,754,-3010,-910,420,315,-625,-427
00:01:36.697,,-361,-679,748,-2450,-1260,350,313,-627,-426
00:01:36.716,,-357,-668,749,-1050,-2100,630,309,-625,-412
00:01:36.734,,-356,-659,758,-980,-3080,1260,304,-627,-418
00:01:36.753,,-359,-651,768,-1260,-3360,1470,313,-628,-417
00:01:36.771,,-363,-645,766,-1400,-2590,1050,313,-628,-421
00:01:36.790,,-364,-643,763,-2450,-1470,280,315,-633,-415
