Sensors' Acquisition [Hz]: Acc@52.0 Gyro@52.0 Mag@52.0 
hh:mm:ss.ms, Annotation , AccX [mg], AccY, AccZ, GyroX [mdps], GyroY, GyroZ, MagX [mgauss], MagY, MagZ
18:58:32.548,,-451,26,950,140,1750,2100,-78,205,-489
18:58:32.567,,-457,34,937,350,1050,1050,-78,211,-484
18:58:32.586,,-464,41,929,1120,350,-280,-73,217,-486
18:58:32.605,,-468,35,924,1470,-280,-1400,-81,211,-487
18:58:32.624,,-470,26,914,1610,-700,-2520,-76,210,-487
18:58:32.642,,-468,12,904,1190,-840,-3150,-66,213,-487
18:58:32.661,,-466,2,900,490,-700,-3220,-78,219,-489
18:58:32.680,,-466,-13,907,-980,-420,-2730,-87,213,-486
18:58:32.699,,-464,-23,929,-1820,-560,-2170,-82,217,-489
18:58:32.718,,-460,-24,934,-980,-1190,-1470,-78,214,-483
18:58:32.736,,-451,-15,943,-70,-1610,-420,-78,204,-480
18:58:32.755,,-448,-7,945,210,-1330,560,-78,210,-480
18:58:32.774,,-446,0,946,0,-490,910,-75,210,-474
18:58:32.793,,-447,7,950,210,490,1050,-70,207,-474
18:58:32.812,,-450,7,944,-490,1190,770,-90,208,-490
18:58:32.830,,-451,6,931,-1050,1540,70,-75,213,-492
18:58:32.849,,-454,0,922,-1680,1190,-420,-79,216,-477
18:58:32.868,,-454,0,922,-1680,1190,-420,-81,210,-487
18:58:32.887,,-457,1,936,-1750,280,-910,-85,213,-483
18:58:32.906,,-458,6,950,-1400,-770,-980,-73,217,-477
18:58:32.924,,-457,3,959,-1750,-1680,-980,-78,210,-480
18:58:32.943,,-455,7,971,-560,-1960,-1050,-82,216,-480
18:58:32.962,,-454,12,966,420,-1610,-1120,-70,210,-480
18:58:32.981,,-451,12,969,770,-630,-1330,-69,214,-484
18:58:32.999,,-451,0,957,770,350,-1540,-87,214,-487
18:58:33.018,,-454,-6,945,910,840,-1890,-82,216,-480
18:58:33.037,,-458,-10,933,1120,910,-1680,-69,217,-486
18:58:33.056,,-459,-15,929,840,490,-1120,-82,219,-478
18:58:33.075,,-453,-11,927,980,-280,-490,-81,213,-484
18:58:33.093,,-454,-1,926,1050,-630,-140,-85,205,-480
18:58:33.112,,-459,16,936,910,-630,140,-70,211,-486
18:58:33.131,,-462,17,931,-350,-630,350,-81,214,-480
18:58:33.150,,-463,22,930,-1120,-560,210,-81,214,-480
18:58:33.169,,-466,22,930,-1960,-420,-280,-81,211,-478
18:58:33.187,,-469,19,942,-2730,-280,-840,-73,207,-480
18:58:33.206,,-472,7,957,-3010,-490,-1330,-67,208,-474
18:58:33.225,,-469,-3,956,-2800,-1400,-1610,-78,214,-481
18:58:33.244,,-462,-11,961,-1540,-2030,-1260,-73,211,-489
18:58:33.263,,-452,-12,966,-630,-2170,-770,-73,208,-469
18:58:33.281,,-444,-18,968,-210,-1610,-210,-72,214,-484
18:58:33.300,,-438,-20,963,280,-630,420,-85,214,-486
18:58:33.319,,-438,-15,955,560,630,980,-73,211,-471
18:58:33.338,,-440,-3,939,140,1750,1400,-72,214,-483
18:58:33.357,,-445,4,932,-420,2380,1680,-84,220,-484
18:58:33.375,,-454,15,928,-910,2240,1400,-82,217,-490
18:58:33.394,,-463,29,935,-1260,1260,980,-75,220,-483
18:58:33.413,,-468,36,943,-1400,-210,420,-75,204,-480
18:58:33.432,,-468,46,952,-840,-1680,-490,-79,211,-481
18:58:33.451,,-465,43,957,-490,-2520,-1470,-81,217,-489
18:58:33.469,,-461,30,962,-140,-2590,-2380,-75,219,-487
18:58:33.488,,-454,17,961,210,-1890,-3080,-81,216,-483
18:58:33.507,,-451,-2,959,70,-910,-3570,-82,213,-487
18:58:33.526,,-450,-26,946,-630,-140,-3780,-81,216,-483
18:58:33.544,,-448,-42,936,-770,-70,-3150,-79,219,-489
18:58:33.563,,-449,-44,938,-700,-280,-1680,-79,216,-490
18:58:33.582,,-451,-38,944,-770,-700,210,-81,216,-481
18:58:33.601,,-454,-18,953,-630,-980,1750,-76,214,-486
18:58:33.620,,-455,2,966,0,-910,2660,-79,214,-490
18:58:33.638,,-459,20,968,210,-490,2870,-84,211,-484
18:58:33.657,,-461,32,964,140,280,2450,-75,217,-478
18:58:33.676,,-463,31,965,140,1050,1890,-73,216,-484
18:58:33.695,,-463,25,961,70,1470,630,-82,214,-487
18:58:33.714,,-459,17,955,560,1540,-770,-78,211,-481
18:58:33.732,,-457,7,951,770,1470,-1750,-73,210,-471
18:58:33.751,,-461,-5,945,490,980,-2240,-69,213,-475
18:58:33.770,,-460,-12,943,770,210,-2100,-79,213,-486
18:58:33.789,,-460,-9,939,1330,-350,-1680,-79,208,-489
18:58:33.808,,-459,-5,932,1120,-490,-1190,-79,217,-487
18:58:33.826,,-462,-2,929,420,-140,-770,-81,216,-487
18:58:33.845,,-464,0,927,70,-70,-420,-82,217,-480
18:58:33.864,,-464,5,927,-210,-210,0,-81,223,-477
18:58:33.883,,-464,8,928,-560,-490,770,-78,207,-477
18:58:33.902,,-462,8,935,-1050,-840,1470,-78,214,-486
18:58:33.920,,-457,13,942,-1190,-980,1540,-81,211,-478
18:58:33.939,,-456,21,950,-1050,-1050,1050,-76,208,-492
18:58:33.958,,-456,24,952,-1470,-980,280,-70,211,-481
18:58:33.977,,-460,20,960,-1890,-980,-420,-81,211,-481
18:58:33.996,,-460,11,968,-1750,-1330,-1260,-76,216,-496
18:58:34.014,,-458,1,976,-1050,-1610,-1610,-72,208,-477
18:58:34.033,,-458,-4,983,-350,-1540,-1890,-79,216,-483
18:58:34.052,,-459,-8,973,140,-980,-1890,-84,211,-483
18:58:34.071,,-462,-7,965,630,-70,-1330,-81,213,-484
18:58:34.090,,-464,-6,955,420,770,-490,-72,214,-474
18:58:34.108,,-466,-4,940,280,1190,490,-79,216,-478
18:58:34.127,,-463,-2,937,70,980,1260,-79,219,-490
18:58:34.146,,-460,3,932,-140,630,1680,-81,219,-489
18:58:34.165,,-457,10,936,-490,210,2030,-75,211,-486
18:58:34.184,,-456,17,946,-1400,-140,2030,-75,211,-486
18:58:34.202,,-456,16,959,-2170,-560,1330,-82,219,-477
18:58:34.221,,-457,22,972,-1820,-1050,280,-82,213,-478
18:58:34.240,,-458,21,979,-1190,-1400,-770,-69,213,-484
18:58:34.259,,-456,20,987,-350,-1190,-1610,-85,216,-478
18:58:34.278,,-457,16,985,280,-420,-1890,-76,213,-487
18:58:34.296,,-460,9,972,280,490,-2100,-70,216,-489
18:58:34.315,,-465,0,960,-70,1330,-2170,-81,210,-486
18:58:34.334,,-471,-12,951,-350,1470,-2100,-84,214,-486
18:58:34.353,,-472,-16,945,-70,840,-1470,-79,226,-487
18:58:34.371,,-470,-10,949,350,-140,-420,-79,223,-486
18:58:34.390,,-464,-3,954,630,-910,560,-78,214,-486
18:58:34.409,,-461,8,952,1120,-980,770,-79,217,-486
18:58:34.428,,-460,16,953,1400,-350,490,-81,225,-484
18:58:34.447,,-459,14,954,980,560,0,-79,222,-489
18:58:34.465,,-459,9,945,840,1400,-140,-76,216,-489
18:58:34.484,,-459,5,936,910,1680,-420,-85,217,-484
18:58:34.503,,-460,3,922,910,1260,-700,-76,217,-490
18:58:34.522,,-462,8,914,840,350,-630,-76,208,-480
18:58:34.541,,-465,9,912,210,-840,-350,-87,222,-484
18:58:34.559,,-470,11,920,-350,-2310,-420,-82,217,-492
18:58:34.578,,-469,15,934,-140,-3640,-630,-82,214,-487
18:58:34.597,,-467,17,947,-280,-4340,-910,-81,219,-483
18:58:34.616,,-467,16,959,-840,-4130,-1400,-90,214,-484
18:58:34.635,,-468,9,969,-1260,-3220,-1540,-78,205,-490
18:58:34.653,,-467,9,974,-1540,-2100,-1050,-79,208,-477
18:58:34.672,,-467,-1,974,-1540,-2100,-1050,-84,213,-490
18:58:34.691,,-465,-9,969,-1610,-1120,-420,-88,219,-492
18:58:34.710,,-466,-10,965,-1540,-350,210,-76,216,-481
18:58:34.729,,-465,-12,961,-1400,-210,1120,-78,214,-484
18:58:34.747,,-462,-4,959,-770,-420,2380,-85,214,-492
18:58:34.766,,-458,5,961,-490,-700,3570,-81,214,-484
18:58:34.785,,-453,10,963,-630,-840,3990,-82,222,-487
18:58:34.804,,-448,17,973,280,-910,3570,-84,207,-483
18:58:34.823,,-444,28,974,1610,-630,2870,-84,211,-489
18:58:34.841,,-442,30,972,2170,0,2310,-76,222,-483
18:58:34.860,,-440,26,963,2520,490,1680,-79,214,-481
18:58:34.879,,-437,20,942,3220,700,1260,-81,210,-481
18:58:34.898,,-437,17,925,3920,910,770,-84,214,-487
18:58:34.916,,-439,11,907,3640,1050,420,-79,207,-478
18:58:34.935,,-443,5,896,3080,1050,350,-81,214,-474
18:58:34.954,,-443,4,891,2310,700,350,-79,207,-478
18:58:34.973,,-447,0,891,2030,70,490,-79,216,-477
18:58:34.992,,-444,10,891,2170,-630,630,-85,217,-487
18:58:35.010,,-442,18,891,1750,-840,1120,-90,211,-480
18:58:35.029,,-443,22,890,490,-630,1540,-87,214,-486
18:58:35.048,,-443,21,889,-560,-350,1960,-82,211,-489
18:58:35.067,,-444,21,888,-1120,-140,2240,-76,214,-483
18:58:35.086,,-443,25,889,-1890,-140,2030,-81,210,-489
18:58:35.104,,-442,25,895,-3290,-350,1610,-81,216,-489
18:58:35.123,,-445,24,902,-4270,-1050,1050,-73,213,-487
18:58:35.142,,-445,26,926,-4200,-2100,560,-82,202,-480
18:58:35.161,,-445,31,952,-3360,-2870,-210,-81,207,-478
18:58:35.180,,-441,34,964,-2450,-3080,-840,-81,211,-483
18:58:35.198,,-442,34,969,-1750,-2310,-1330,-70,205,-475
18:58:35.217,,-446,31,971,-2100,-1050,-2030,-70,205,-475
18:58:35.236,,-453,17,959,-2450,-210,-2730,-73,210,-477
18:58:35.255,,-459,8,952,-1890,70,-3010,-79,207,-475
18:58:35.274,,-460,4,957,-1120,-140,-2800,-76,208,-487
18:58:35.292,,-455,2,955,-770,-560,-2520,-78,213,-478
18:58:35.311,,-451,4,952,-490,-980,-2380,-87,216,-481
18:58:35.330,,-449,7,952,-210,-1050,-2520,-84,216,-487
18:58:35.349,,-449,8,951,-140,-1050,-2590,-73,208,-486
18:58:35.368,,-449,5,946,-140,-980,-2240,-82,219,-484
18:58:35.386,,-449,1,945,-70,-1050,-1680,-85,205,-486
18:58:35.405,,-448,5,941,350,-910,-1330,-79,205,-489
18:58:35.424,,-444,3,938,490,-840,-1120,-79,219,-481
18:58:35.443,,-443,3,934,350,-560,-840,-81,213,-484
18:58:35.462,,-442,6,932,0,-210,-350,-79,204,-475
18:58:35.480,,-442,10,932,-420,-70,0,-76,208,-474
18:58:35.499,,-444,19,932,-490,-70,210,-88,213,-484
18:58:35.518,,-446,25,940,-630,-210,70,-82,207,-483
18:58:35.537,,-448,30,951,-630,-490,-420,-76,211,-480
18:58:35.555,,-449,33,949,-280,-770,-1260,-76,210,-471
18:58:35.574,,-451,32,954,280,-770,-2170,-82,214,-487
18:58:35.593,,-453,24,948,490,-560,-2730,-82,208,-481
18:58:35.612,,-455,16,944,980,-140,-2870,-81,220,-489
18:58:35.631,,-457,7,935,1050,70,-2730,-85,210,-483
18:58:35.649,,-460,0,924,1050,70,-2380,-82,208,-484
18:58:35.668,,-460,0,918,770,0,-1750,-84,217,-484
18:58:35.687,,-458,-2,915,-280,-70,-840,-79,213,-484
18:58:35.689,>gest9_down,,,,,,,,,
18:58:35.706,,-457,-5,917,-1330,0,350,-82,216,-489
18:58:35.725,,-458,0,928,-2100,-70,1260,-87,225,-486
18:58:35.743,,-458,0,937,-2380,-700,1820,-78,208,-481
18:58:35.762,,-454,13,951,-2030,-1260,2100,-84,217,-481
18:58:35.781,,-449,27,970,-1820,-1260,2310,-81,208,-484
18:58:35.800,,-446,34,979,-2100,-700,2240,-76,219,-487
18:58:35.819,,-450,37,985,-1820,140,1610,-70,211,-484
18:58:35.837,,-453,32,989,-1470,700,420,-84,214,-481
18:58:35.856,,-454,20,986,-420,770,-980,-87,219,-484
18:58:35.875,,-450,7,985,1470,560,-1890,-76,213,-490
18:58:35.894,,-442,-4,968,3150,420,-1680,-82,213,-484
18:58:35.913,,-435,-11,950,4340,770,-560,-88,202,-493
18:58:35.931,,-436,-11,933,4690,1330,560,-90,216,-483
18:58:35.950,,-444,-4,926,5040,1750,1680,-81,214,-487
18:58:35.969,,-446,5,907,5250,1960,2450,-85,213,-484
18:58:35.988,,-447,18,898,4200,2170,2870,-88,216,-481
18:58:36.007,,-450,24,901,2800,2240,3290,-79,219,-486
18:58:36.025,,-452,31,906,2100,1890,3290,-82,214,-481
18:58:36.044,,-451,44,913,1820,1190,2800,-97,208,-478
18:58:36.063,,-453,53,922,1190,560,2100,-85,216,-487
18:58:36.082,,-454,56,935,700,280,1050,-87,217,-489
18:58:36.101,,-455,52,935,560,210,70,-84,214,-478
18:58:36.119,,-451,50,937,700,420,-1050,-94,210,-486
18:58:36.138,,-450,41,924,-210,980,-1890,-87,216,-484
18:58:36.157,,-452,33,912,-1750,1260,-2450,-84,216,-481
18:58:36.176,,-457,30,894,-3570,980,-3220,-90,210,-484
18:58:36.194,,-464,30,872,-5530,0,-3780,-93,213,-489
18:58:36.213,,-465,38,852,-7910,-1540,-4550,-79,213,-474
18:58:36.232,,-454,54,790,-12460,-3500,-5600,-84,207,-487
18:58:36.251,,-452,62,685,-22960,-6650,-8190,-84,207,-487
18:58:36.270,,-447,51,535,-40460,-12530,-11900,-84,217,-480
18:58:36.288,,-434,22,393,-65030,-24850,-16170,-72,205,-474
18:58:36.307,,-404,-43,308,-90650,-46690,-19250,-51,205,-489
18:58:36.326,,-325,-169,316,-105420,-78750,-22610,-43,205,-487
18:58:36.345,,-223,-282,345,-98140,-118370,-27720,-37,187,-481
18:58:36.364,,-126,-352,431,-72870,-161560,-34090,-16,153,-486
18:58:36.382,,-28,-336,534,-48440,-203910,-42070,-16,130,-463
18:58:36.401,,81,-258,595,-43050,-237370,-48510,-12,108,-457
18:58:36.420,,185,-202,662,-50260,-256060,-47530,-18,78,-429
18:58:36.439,,290,-229,701,-55790,-259000,-37800,-13,48,-424
18:58:36.458,,290,-229,701,-55790,-259000,-37800,-7,18,-384
18:58:36.476,,408,-242,805,-51590,-248430,-25130,-10,-13,-360
18:58:36.495,,552,-96,952,-58660,-223090,-27020,-6,-24,-339
18:58:36.514,,628,-87,1102,-83090,-186130,-35420,-4,-43,-322
18:58:36.533,,643,-221,1254,-107170,-148400,-42980,6,-52,-312
18:58:36.552,,641,-452,1360,-110810,-118860,-48580,3,-55,-292
18:58:36.570,,637,-592,1386,-88060,-98840,-52920,-3,-63,-270
18:58:36.589,,637,-567,1397,-52920,-86240,-51030,1,-72,-268
18:58:36.608,,647,-451,1392,-31080,-75390,-43820,-4,-75,-262
18:58:36.627,,600,-376,1341,-35000,-62300,-35280,-18,-73,-259
18:58:36.646,,536,-243,1434,-50050,-45710,-27510,-12,-76,-258
18:58:36.664,,506,-543,1700,-81620,-18410,-18830,-1,-79,-253
18:58:36.683,,377,-786,1813,-65800,6580,-7910,-10,-66,-258
18:58:36.702,,351,-623,1474,-15890,9450,-2240,-9,-70,-264
18:58:36.721,,399,-598,1001,3220,2940,3920,0,-81,-265
18:58:36.740,,452,-445,714,20580,-1610,6370,-7,-76,-258
18:58:36.758,,468,-342,620,26320,-1960,6370,-10,-72,-262
18:58:36.777,,471,-305,628,18130,-1400,4970,-3,-73,-253
18:58:36.796,,471,-345,621,5670,-2800,3640,3,-81,-256
18:58:36.815,,483,-356,648,-910,-5180,700,-6,-82,-259
18:58:36.834,,479,-355,745,-4200,-5040,-1890,-9,-76,-258
18:58:36.852,,470,-367,874,-7840,-3150,-2030,-4,-78,-262
18:58:36.871,,460,-376,982,-7700,-700,-910,-12,-81,-261
18:58:36.890,,447,-376,1068,-3640,2520,-210,-3,-72,-256
18:58:36.909,,437,-403,1091,-420,4340,630,-1,-70,-255
18:58:36.927,,460,-460,1071,3500,3920,3080,4,-73,-255
18:58:36.946,,478,-465,1109,14630,5390,7000,-4,-63,-252
18:58:36.965,,519,-462,1194,24360,9590,9170,-3,-69,-261
18:58:36.984,,585,-425,1316,31290,17990,10290,0,-75,-268
18:58:37.003,,626,-396,1403,33740,32340,13300,-1,-69,-261
18:58:37.021,,649,-399,1449,31850,51380,17430,-9,-64,-280
18:58:37.040,,641,-445,1459,29050,74200,21980,3,-57,-295
18:58:37.059,,614,-503,1430,35210,97510,24500,-3,-60,-312
18:58:37.078,,575,-530,1372,53060,118720,25760,-6,-42,-330
18:58:37.097,,537,-485,1296,73570,136500,25760,-12,-28,-333
18:58:37.115,,490,-422,1204,83790,152460,25550,-10,-18,-358
18:58:37.134,,414,-393,1106,84350,165900,27020,-25,-7,-378
18:58:37.153,,319,-355,990,82040,174790,28980,-21,16,-403
18:58:37.172,,236,-308,898,79030,178500,30940,-24,49,-408
18:58:37.191,,147,-268,785,76230,177940,31500,-27,60,-433
18:58:37.209,,68,-207,682,73780,172620,30240,-31,84,-439
18:58:37.228,,3,-147,623,69090,163730,28140,-40,105,-438
18:58:37.247,,-62,-104,541,60690,152670,24850,-49,124,-459
18:58:37.266,,-133,-94,477,50610,139930,20370,-54,141,-468
18:58:37.285,,-192,-117,416,44030,125230,16240,-54,141,-468
18:58:37.303,,-246,-124,382,42420,108640,12460,-60,151,-463
18:58:37.322,,-293,-85,416,42280,89880,9380,-57,168,-472
18:58:37.341,,-323,-48,482,38220,69790,8330,-61,175,-478
18:58:37.360,,-349,-19,528,28980,49980,6930,-75,180,-466
18:58:37.379,,-360,-9,564,17080,31570,5740,-70,190,-478
18:58:37.397,,-378,-28,617,8960,16310,6020,-66,193,-481
18:58:37.416,,-384,-38,703,5110,3640,4690,-73,193,-474
18:58:37.435,,-377,-37,781,3990,-6160,2590,-75,190,-468
18:58:37.454,,-379,-27,867,5040,-12320,1190,-79,186,-474
18:58:37.473,,-375,-21,931,5600,-15470,-140,-78,189,-475
18:58:37.491,,-375,-15,966,4410,-15680,-2100,-76,189,-477
18:58:37.510,,-378,-4,1000,2310,-13580,-3640,-76,181,-474
18:58:37.529,,-383,-8,1040,-2240,-10290,-4270,-78,181,-474
18:58:37.548,,-386,-26,1058,-7700,-7000,-4270,-73,180,-484
18:58:37.566,,-381,-53,1067,-11690,-4760,-3360,-79,183,-480
18:58:37.585,,-374,-87,1077,-12460,-3500,-1680,-82,175,-469
18:58:37.604,,-367,-97,1077,-9520,-3010,-350,-70,175,-486
18:58:37.623,,-356,-95,1065,-4900,-2730,910,-75,177,-475
18:58:37.642,,-345,-65,1054,-1330,-2030,2240,-76,186,-481
18:58:37.660,,-342,-45,1043,-1540,-630,3710,-69,186,-478
18:58:37.679,,-341,-53,1017,-3500,630,4200,-67,174,-469
18:58:37.698,,-342,-50,992,-3010,1610,3850,-70,166,-471
18:58:37.717,,-347,-42,971,-2100,2030,3220,-78,171,-484
18:58:37.736,,-354,-40,955,-1820,1960,3150,-73,180,-478
18:58:37.754,,-359,-36,959,-1680,1330,3150,-60,174,-477
18:58:37.773,,-364,-29,958,-1260,210,3010,-73,177,-477
18:58:37.792,,-364,-19,956,-770,-840,2940,-73,174,-474
18:58:37.811,,-360,-11,953,-980,-1190,2590,-55,172,-472
18:58:37.830,,-364,-12,957,-1750,-980,1960,-63,174,-483
18:58:37.848,,-366,-21,961,-2380,-840,910,-70,174,-475
18:58:37.867,,-364,-28,965,-2310,-980,-140,-69,174,-472
18:58:37.886,,-363,-34,974,-2380,-1190,-770,-61,171,-480
18:58:37.905,,-362,-45,982,-2730,-1470,-1400,-70,178,-477
18:58:37.924,,-358,-58,983,-2590,-1960,-1820,-61,178,-478
18:58:37.942,,-358,-62,984,-2030,-2170,-2030,-61,178,-471
18:58:37.961,,-360,-68,984,-1890,-2030,-1750,-57,166,-469
18:58:37.980,,-360,-77,986,-1960,-1820,-1120,-69,171,-472
18:58:37.999,,-360,-75,984,-1890,-1680,-700,-67,177,-478
18:58:38.018,,-360,-69,986,-2100,-1610,-140,-63,172,-475
18:58:38.036,,-360,-65,987,-2660,-1750,560,-64,177,-471
18:58:38.055,,-360,-62,993,-2940,-1890,1050,-63,174,-462
18:58:38.074,,-362,-51,999,-2450,-1890,1120,-66,169,-471
18:58:38.093,,-365,-43,997,-2170,-1890,1120,-64,168,-477
18:58:38.112,,-363,-45,1001,-1960,-2170,1050,-72,177,-474
18:58:38.130,,-359,-47,991,-1400,-2590,910,-69,165,-484
18:58:38.149,,-353,-45,990,-490,-2590,840,-60,175,-477
18:58:38.168,,-348,-46,991,-70,-2100,770,-61,174,-478
18:58:38.187,,-347,-52,987,-560,-1470,910,-66,184,-478
18:58:38.205,,-346,-51,984,-770,-980,1190,-66,172,-481
18:58:38.224,,-345,-45,978,-910,-770,1470,-61,166,-480
18:58:38.243,,-345,-45,978,-1330,-910,1610,-61,172,-477
18:58:38.262,,-347,-40,978,-1330,-910,1610,-61,174,-472
18:58:38.281,,-350,-39,986,-1540,-1260,1120,-57,169,-474
18:58:38.299,,-351,-39,996,-1190,-1890,210,-64,168,-475
18:58:38.318,,-345,-40,1000,-770,-2310,-910,-64,165,-472
18:58:38.337,,-340,-45,1004,-280,-2170,-1610,-64,165,-472
18:58:38.356,,-341,-47,1005,-280,-1120,-2030,-63,166,-471
18:58:38.375,,-344,-57,1004,-910,140,-2380,-60,177,-477
18:58:38.393,,-352,-66,1000,-910,910,-2450,-63,171,-472
18:58:38.412,,-358,-67,994,-350,910,-2310,-61,168,-475
18:58:38.431,,-359,-65,985,210,280,-1750,-64,174,-466
18:58:38.450,,-361,-58,986,700,-210,-1190,-63,169,-471
18:58:38.469,,-364,-56,981,560,-700,-1190,-61,171,-474
18:58:38.487,,-363,-59,976,490,-1120,-1540,-66,174,-471
18:58:38.506,,-359,-60,980,70,-910,-2030,-55,165,-472
18:58:38.525,,-357,-67,981,-1190,-350,-2240,-57,174,-469
18:58:38.544,,-361,-74,985,-2380,350,-2380,-72,174,-477
18:58:38.563,,-363,-75,985,-3290,420,-2380,-61,171,-471
18:58:38.581,,-366,-72,989,-3780,210,-1750,-45,183,-486
18:58:38.600,,-370,-67,1006,-3850,-280,-1050,-58,175,-462
18:58:38.619,,-369,-64,1014,-3570,-910,-140,-58,174,-480
18:58:38.638,,-363,-54,1017,-2520,-1400,770,-66,177,-483
18:58:38.657,,-360,-51,1020,-2100,-980,1400,-67,171,-469
18:58:38.675,,-355,-47,1016,-1890,-140,1540,-72,171,-481
18:58:38.694,,-354,-44,1013,-1750,700,1610,-57,169,-471
18:58:38.713,,-355,-50,1007,-1890,1120,1330,-57,171,-465
18:58:38.732,,-356,-61,1006,-1680,770,770,-60,174,-472
18:58:38.751,,-352,-61,1003,-700,-280,280,-57,174,-475
18:58:38.769,,-344,-65,1000,70,-980,210,-67,174,-468
18:58:38.788,,-340,-59,1002,490,-910,0,-52,171,-466
18:58:38.807,,-338,-60,993,700,-350,-210,-55,172,-465
18:58:38.826,,-343,-56,984,840,560,-420,-63,172,-475
18:58:38.845,,-346,-60,975,490,1120,-770,-61,168,-471
18:58:38.863,,-353,-59,968,70,1260,-1050,-61,178,-475
18:58:38.882,,-355,-57,968,-630,910,-1190,-67,174,-477
18:58:38.901,,-358,-56,968,-1540,280,-1470,-67,171,-477
18:58:38.920,,-359,-63,980,-2100,-560,-1750,-54,171,-466
18:58:38.939,,-358,-63,993,-1680,-1400,-2240,-61,174,-475
18:58:38.957,,-359,-60,999,-980,-1680,-2380,-66,177,-478
18:58:38.976,,-360,-61,1000,-910,-1470,-1960,-60,174,-472
18:58:38.995,,-362,-65,1001,-910,-910,-1330,-54,178,-471
18:58:39.014,,-362,-68,994,-700,-350,-560,-60,169,-475
18:58:39.032,,-361,-68,993,-700,280,0,-60,171,-474
18:58:39.051,,-359,-71,994,-840,630,350,-60,175,-471
18:58:39.070,,-356,-70,992,-560,490,770,-55,171,-468
18:58:39.089,,-353,-63,989,-280,140,1190,-67,175,-472
18:58:39.108,,-349,-58,990,70,-70,1610,-67,169,-475
18:58:39.126,,-345,-48,992,350,140,1540,-49,168,-478
18:58:39.145,,-347,-43,987,70,840,910,-60,169,-466
18:58:39.164,,-351,-44,979,-350,1400,140,-64,169,-474
18:58:39.183,,-355,-47,976,-700,1470,-560,-63,172,-475
18:58:39.202,,-362,-54,973,-910,700,-840,-64,175,-468
18:58:39.220,,-364,-55,977,-700,-560,-840,-64,172,-480
18:58:39.239,,-363,-57,985,-420,-1750,-700,-63,172,-474
18:58:39.258,,-355,-60,994,-140,-2310,-700,-60,177,-474
18:58:39.277,,-349,-61,1001,280,-1960,-490,-63,172,-478
18:58:39.296,,-346,-64,1000,280,-980,-280,-63,166,-478
18:58:39.314,,-348,-65,995,280,210,-210,-64,175,-474
18:58:39.333,,-354,-66,986,-140,980,-350,-55,175,-478
18:58:39.352,,-357,-65,976,-840,980,-560,-66,181,-468
18:58:39.371,,-361,-61,974,-1400,490,-700,-54,177,-474
18:58:39.390,,-363,-63,978,-1890,-490,-1330,-54,177,-474
18:58:39.408,,-367,-58,984,-1820,-1330,-1680,-61,178,-475
18:58:39.427,,-370,-61,991,-2100,-2030,-1540,-64,169,-475
18:58:39.446,,-369,-66,998,-2310,-2660,-1330,-60,177,-472
18:58:39.465,,-367,-65,1001,-2100,-2940,-910,-58,168,-469
18:58:39.484,,-365,-65,1001,-2380,-2660,-490,-55,169,-474
18:58:39.502,,-366,-66,1004,-3080,-1820,-210,-57,172,-469
18:58:39.521,,-370,-73,1009,-3990,-1190,0,-61,168,-474
18:58:39.540,,-372,-76,1015,-4480,-1330,490,-54,165,-475
18:58:39.559,,-369,-77,1022,-4480,-2240,980,-55,175,-472
18:58:39.578,,-360,-73,1028,-4130,-3220,1400,-58,169,-468
18:58:39.596,,-356,-63,1034,-3570,-3570,1890,-57,171,-466
18:58:39.615,,-353,-56,1043,-3500,-3360,1890,-49,172,-477
18:58:39.634,,-352,-54,1048,-3010,-2870,1400,-51,178,-475
18:58:39.653,,-351,-53,1057,-1820,-2170,560,-52,171,-475
18:58:39.672,,-346,-58,1061,-420,-1470,-210,-57,166,-477
18:58:39.690,,-341,-60,1049,770,-280,-560,-43,165,-477
18:58:39.709,,-342,-68,1034,1260,1400,-700,-54,166,-474
18:58:39.728,,-345,-73,1018,1260,2660,-560,-46,166,-478
18:58:39.747,,-349,-74,1003,1610,3010,-350,-49,175,-477
18:58:39.765,,-352,-73,989,1820,2450,0,-52,171,-478
18:58:39.784,,-353,-63,983,1890,1610,280,-70,175,-478
18:58:39.803,,-353,-56,983,1680,630,210,-55,168,-480
18:58:39.822,,-351,-53,979,1610,-140,-70,-52,171,-471
18:58:39.841,,-353,-52,983,1540,-350,-490,-60,162,-478
18:58:39.859,,-353,-61,986,1190,-280,-980,-60,169,-471
18:58:39.878,,-350,-66,983,1400,-70,-1330,-51,162,-469
18:58:39.897,,-350,-71,987,1610,280,-1330,-52,168,-480
18:58:39.916,,-349,-78,984,1540,700,-980,-60,169,-475
18:58:39.935,,-348,-76,981,1470,1120,-420,-67,166,-472
18:58:39.953,,-350,-75,978,1260,1540,210,-58,165,-481
18:58:39.972,,-353,-66,978,1680,1820,630,-55,171,-471
18:58:39.991,,-354,-58,972,1890,1820,770,-57,174,-478
18:58:40.010,,-352,-53,963,1750,1750,700,-57,175,-487
18:58:40.029,,-352,-49,958,1190,1890,630,-61,172,-471
18:58:40.047,,-352,-49,958,1190,1890,630,-64,163,-474
18:58:40.066,,-356,-47,956,280,2100,630,-58,175,-481
18:58:40.085,,-360,-49,958,-840,1820,350,-58,172,-477
18:58:40.104,,-364,-51,967,-1400,1120,-210,-64,175,-472
18:58:40.111,<gest9_down,,,,,,,,,
18:58:40.123,,-365,-49,974,-1610,140,-770,-55,174,-480
18:58:40.141,,-361,-53,988,-1960,-700,-980,-60,181,-483
18:58:40.160,,-360,-55,998,-2030,-1050,-1190,-61,174,-472
18:58:40.179,,-358,-60,1006,-1610,-1190,-1330,-58,163,-480
18:58:40.198,,-355,-63,1007,-910,-910,-1470,-61,174,-477
18:58:40.216,,-351,-66,1005,0,-140,-1190,-58,172,-480
18:58:40.235,,-347,-67,996,560,910,-630,-60,178,-475
18:58:40.254,,-348,-68,981,490,1890,0,-63,180,-477
18:58:40.273,,-350,-66,963,280,2380,490,-64,178,-486
18:58:40.292,,-355,-62,959,-490,2310,910,-57,174,-472
18:58:40.310,,-356,-59,966,-1610,1470,910,-57,180,-475
18:58:40.329,,-357,-52,973,-2100,280,560,-58,178,-480
18:58:40.348,,-361,-42,988,-1820,-770,0,-58,172,-474
18:58:40.367,,-360,-37,996,-980,-1680,-560,-57,175,-478
18:58:40.386,,-356,-32,998,280,-1680,-840,-60,177,-474
18:58:40.404,,-350,-42,988,910,-700,-1260,-63,174,-478
18:58:40.423,,-346,-54,975,1470,770,-1680,-63,174,-478
18:58:40.442,,-346,-70,960,1540,1890,-1540,-57,174,-472
18:58:40.461,,-347,-83,944,1190,2170,-910,-66,174,-477
18:58:40.480,,-348,-87,939,630,1820,0,-64,172,-472
18:58:40.498,,-347,-77,940,210,1050,770,-64,178,-477
18:58:40.517,,-346,-59,945,350,210,1190,-61,180,-471
18:58:40.536,,-343,-38,951,420,-140,1050,-63,175,-474
18:58:40.555,,-343,-32,953,-70,140,770,-64,177,-475
18:58:40.574,,-346,-27,953,-280,700,210,-60,171,-469
18:58:40.592,,-355,-27,951,-140,1120,-840,-60,169,-472
18:58:40.611,,-361,-36,942,-350,980,-1750,-67,177,-474
18:58:40.630,,-360,-45,938,-630,350,-2240,-61,178,-477
18:58:40.649,,-357,-49,939,-1120,-210,-2380,-58,174,-481
18:58:40.668,,-357,-59,945,-2660,-560,-2380,-52,177,-477
18:58:40.686,,-361,-68,958,-3780,-910,-2450,-61,175,-472
18:58:40.705,,-362,-70,973,-3920,-1610,-2730,-66,172,-472
18:58:40.724,,-363,-67,983,-3570,-2380,-2450,-61,177,-481
18:58:40.743,,-359,-63,998,-2940,-2590,-1820,-54,177,-486
18:58:40.762,,-354,-60,1000,-1960,-2170,-1400,-60,174,-472
18:58:40.780,,-348,-58,992,-840,-910,-1330,-49,174,-474
18:58:40.799,,-342,-64,973,-490,700,-1260,-55,183,-472
18:58:40.818,,-338,-74,949,-770,2030,-910,-64,175,-468
18:58:40.837,,-335,-78,929,-1540,2450,-560,-52,177,-477
