Sensors' Acquisition [Hz]: Acc@52.0 Gyro@52.0 Mag@52.0 
hh:mm:ss.ms, Annotation , AccX [mg], AccY, AccZ, GyroX [mdps], GyroY, GyroZ, MagX [mgauss], MagY, MagZ
18:33:10.367,,-213,34,1011,3220,3710,350,-217,172,-412
18:33:10.386,,-212,41,1000,3780,2940,-210,-202,171,-406
18:33:10.405,,-214,46,1003,3150,2520,-210,-207,166,-412
18:33:10.423,,-213,36,1008,1540,1960,0,-210,168,-400
18:33:10.442,,-220,36,1011,1540,1260,70,-208,174,-414
18:33:10.461,,-226,39,1011,1960,280,-140,-204,171,-406
18:33:10.480,,-231,47,1008,1890,-560,-350,-217,175,-414
18:33:10.499,,-229,49,1015,1540,-1260,-490,-214,171,-406
18:33:10.517,,-223,56,1017,1330,-1610,-700,-214,174,-411
18:33:10.536,,-221,64,1021,1470,-1400,-700,-208,174,-411
18:33:10.555,,-219,66,1023,980,-1680,-1190,-214,171,-408
18:33:10.574,,-221,64,1019,1750,-2590,-1960,-210,168,-408
18:33:10.593,,-226,60,1020,3710,-4270,-2590,-210,169,-397
18:33:10.611,,-230,61,1018,5250,-6720,-2800,-202,163,-388
18:33:10.630,,-233,52,1025,5600,-9240,-2240,-211,169,-393
18:33:10.649,,-232,43,1031,5530,-11620,-1120,-216,168,-400
18:33:10.668,,-224,27,1036,5250,-13300,420,-205,171,-397
18:33:10.686,,-215,12,1056,5250,-14000,2240,-222,168,-393
18:33:10.705,,-208,10,1056,5110,-13720,4130,-223,162,-399
18:33:10.724,,-207,24,1051,4830,-12250,6090,-213,160,-402
18:33:10.743,,-202,67,1051,3150,-10150,6860,-213,157,-403
18:33:10.762,,-210,73,1034,-4900,-7280,6440,-222,151,-393
18:33:10.780,,-202,52,1036,-10150,-4900,5180,-211,145,-399
18:33:10.799,,-205,59,1033,-9380,-2310,3570,-214,162,-399
18:33:10.818,,-199,39,1021,-6230,-1260,2310,-205,147,-384
18:33:10.837,,-200,60,1030,-2240,-210,1960,-204,147,-393
18:33:10.856,,-198,58,1029,-2870,140,2100,-207,154,-382
18:33:10.874,,-196,59,1033,-5250,700,2450,-204,151,-397
18:33:10.893,,-185,50,1035,-6300,1680,2660,-204,153,-403
18:33:10.912,,-192,60,1032,-7000,3150,2450,-207,151,-406
18:33:10.931,,-189,67,1030,-8470,3640,2100,-207,151,-406
18:33:10.949,,-188,58,1031,-9870,3570,1750,-213,154,-409
18:33:10.968,,-185,18,1034,-7560,2450,1750,-201,151,-406
18:33:10.987,,-179,35,1042,1820,980,1750,-205,157,-402
18:33:11.006,,-175,71,1039,7070,210,1750,-211,160,-399
18:33:11.025,,-169,59,1035,5250,-70,1750,-204,154,-411
18:33:11.043,,-168,52,1040,4620,630,1050,-202,151,-400
18:33:11.062,,-169,48,1032,5740,1050,280,-207,150,-399
18:33:11.081,,-167,46,1020,6300,910,-630,-222,160,-399
18:33:11.100,,-166,45,1009,6370,770,-1260,-210,160,-406
18:33:11.118,,-167,48,996,5670,770,-1610,-207,154,-402
18:33:11.137,,-174,50,990,4550,490,-1890,-211,159,-403
18:33:11.156,,-179,46,990,3780,-280,-2380,-217,156,-402
18:33:11.175,,-183,42,993,3500,-1400,-2940,-208,159,-399
18:33:11.194,,-182,42,998,3710,-2380,-3430,-205,159,-394
18:33:11.212,,-183,41,1001,3220,-2940,-3570,-219,150,-403
18:33:11.231,,-185,37,1003,1890,-3010,-3500,-211,156,-396
18:33:11.250,,-186,34,1004,280,-2660,-3430,-205,162,-394
18:33:11.269,,-192,30,1009,-980,-2030,-3080,-213,153,-390
18:33:11.288,,-197,34,1010,-2030,-1610,-2520,-210,154,-385
18:33:11.306,,-205,35,1010,-2800,-1260,-1960,-214,157,-387
18:33:11.325,,-208,39,1013,-2660,-1190,-1680,-201,151,-393
18:33:11.344,,-209,46,1016,-1960,-1400,-1540,-207,154,-388
18:33:11.363,,-208,50,1018,-1960,-1540,-1190,-213,156,-385
18:33:11.381,,-208,55,1026,-2660,-1540,-630,-207,159,-403
18:33:11.400,,-206,49,1032,-3570,-1540,-210,-205,150,-384
18:33:11.419,,-202,50,1038,-3150,-1540,0,-207,148,-390
18:33:11.438,,-202,50,1038,-3150,-1540,0,-208,153,-396
18:33:11.457,,-198,52,1039,-2520,-1470,-70,-202,151,-391
18:33:11.475,,-191,53,1042,-2380,-1050,0,-207,154,-390
18:33:11.494,,-190,51,1040,-2730,-350,210,-214,148,-393
18:33:11.513,,-190,52,1039,-3010,210,-70,-217,151,-394
18:33:11.532,,-189,49,1035,-2730,490,-490,-204,153,-391
18:33:11.551,,-190,49,1032,-1890,420,-770,-208,151,-391
18:33:11.569,,-190,49,1031,-630,0,-770,-214,154,-394
18:33:11.588,,-187,48,1031,140,-490,-630,-214,147,-391
18:33:11.607,,-180,50,1028,490,-840,-350,-210,156,-399
18:33:11.626,,-178,53,1031,350,-490,-70,-214,156,-397
18:33:11.644,,-181,51,1035,70,-140,-210,-216,151,-399
18:33:11.663,,-184,50,1033,980,-70,-770,-216,154,-397
18:33:11.682,,-186,55,1032,2030,-420,-1470,-205,154,-399
18:33:11.701,,-185,57,1025,1680,-770,-1470,-217,153,-397
18:33:11.720,,-185,55,1018,910,-1120,-1120,-220,153,-397
18:33:11.738,,-187,52,1016,630,-1540,-840,-211,156,-397
18:33:11.757,,-187,50,1019,1050,-2030,-980,-207,156,-396
18:33:11.776,,-188,50,1021,1610,-2240,-1260,-222,159,-396
18:33:11.795,,-190,43,1021,1190,-2170,-1120,-219,162,-396
18:33:11.813,,-189,35,1019,420,-1820,-840,-213,157,-400
18:33:11.832,,-193,34,1019,-140,-1120,-350,-210,153,-391
18:33:11.851,,-194,35,1018,-980,-630,140,-216,157,-394
18:33:11.870,,-201,33,1019,-1820,-210,700,-208,156,-394
18:33:11.889,,-205,37,1021,-2240,-420,1190,-208,156,-394
18:33:11.907,,-206,39,1022,-2310,-1050,1820,-202,154,-388
18:33:11.926,,-206,45,1025,-2380,-1400,2380,-214,154,-405
18:33:11.945,,-206,52,1026,-2520,-1540,2800,-214,156,-400
18:33:11.964,,-202,53,1032,-2730,-1330,3220,-211,156,-399
18:33:11.983,,-201,46,1039,-2800,-1190,3430,-208,154,-397
18:33:12.001,,-195,51,1049,-1890,-1260,3010,-211,156,-402
18:33:12.020,,-194,53,1050,-1190,-910,2660,-211,153,-394
18:33:12.039,,-188,51,1051,-1260,-630,2310,-207,151,-394
18:33:12.058,,-189,52,1050,-1190,70,2450,-204,157,-394
18:33:12.076,,-185,47,1046,-1330,490,2730,-211,154,-399
18:33:12.095,,-181,45,1039,-630,980,3290,-210,148,-399
18:33:12.114,,-181,52,1039,-70,1680,3640,-204,150,-403
18:33:12.133,,-181,55,1032,-490,2240,3710,-205,154,-391
18:33:12.152,,-186,59,1028,-910,2590,3780,-208,154,-399
18:33:12.170,,-185,58,1022,-1540,2310,3640,-195,153,-399
18:33:12.189,,-185,60,1017,-1750,1680,3430,-192,148,-387
18:33:12.208,,-186,55,1013,-1960,1050,3150,-207,147,-399
18:33:12.227,,-184,44,1016,-1890,210,2940,-213,154,-397
18:33:12.245,,-184,48,1024,-1400,-210,2870,-205,144,-400
18:33:12.264,,-187,45,1025,-1960,-350,3080,-199,151,-405
18:33:12.283,,-192,39,1033,-2730,-490,3220,-204,150,-405
18:33:12.302,,-182,48,1031,-3220,-490,3220,-208,145,-402
18:33:12.321,,-190,42,1028,-4480,-210,3290,-196,154,-405
18:33:12.339,,-183,42,1036,-3710,-140,2940,-196,147,-394
18:33:12.358,,-190,43,1020,-2730,0,2730,-202,148,-406
18:33:12.377,,-190,56,1022,-2660,0,2450,-202,150,-393
18:33:12.396,,-190,49,1023,-3920,-140,2170,-193,147,-391
18:33:12.415,,-186,38,1026,-2870,-350,1960,-199,148,-390
18:33:12.433,,-185,51,1036,-910,-420,1470,-207,141,-393
18:33:12.452,,-183,53,1038,-630,-770,910,-192,145,-397
18:33:12.471,,-184,50,1034,-840,-770,770,-193,139,-393
18:33:12.490,,-184,50,1034,-420,-630,350,-198,148,-391
18:33:12.508,,-182,51,1024,140,-420,-210,-193,144,-396
18:33:12.527,,-183,48,1027,420,210,-700,-195,145,-391
18:33:12.546,,-186,43,1028,0,700,-1120,-196,144,-394
18:33:12.565,,-185,39,1026,-140,770,-1400,-195,148,-396
18:33:12.584,,-185,39,1015,70,1050,-1330,-196,153,-402
18:33:12.602,,-187,36,1013,0,1260,-1050,-198,150,-400
18:33:12.621,,-189,37,1020,-210,1190,-1190,-199,151,-399
18:33:12.640,,-191,36,1019,-140,560,-1260,-199,148,-396
18:33:12.659,,-191,40,1019,0,70,-1260,-201,148,-406
18:33:12.677,,-188,46,1018,-490,-350,-1190,-198,141,-394
18:33:12.696,,-187,45,1019,-1400,-420,-980,-199,145,-396
18:33:12.715,,-186,45,1025,-1960,-420,-1050,-208,154,-399
18:33:12.734,,-187,39,1028,-1680,-700,-1190,-202,148,-396
18:33:12.753,,-188,46,1029,-280,-1260,-1680,-198,145,-406
18:33:12.771,,-190,51,1023,140,-1470,-2030,-195,156,-409
18:33:12.790,,-193,45,1027,-560,-1330,-2100,-204,148,-408
18:33:12.809,,-194,38,1031,-1330,-1330,-2240,-201,147,-405
18:33:12.828,,-193,33,1030,-910,-1540,-2170,-195,151,-397
18:33:12.847,,-196,39,1032,-280,-1470,-1960,-195,151,-397
18:33:12.865,,-197,39,1033,-770,-1190,-1470,-201,153,-402
18:33:12.884,,-201,42,1034,-1120,-840,-1050,-210,145,-400
18:33:12.903,,-205,42,1034,-770,-840,-910,-195,145,-402
18:33:12.922,,-205,44,1038,210,-1190,-1050,-198,154,-402
18:33:12.940,,-203,44,1036,840,-1400,-1260,-201,150,-402
18:33:12.959,,-199,42,1034,840,-1330,-1330,-202,150,-402
18:33:12.978,,-193,39,1029,350,-770,-1260,-198,147,-405
18:33:12.997,,-194,31,1031,-700,0,-630,-196,144,-396
18:33:13.016,,-194,19,1033,-1540,280,70,-198,150,-400
18:33:13.034,,-196,15,1033,-1260,420,910,-201,147,-397
18:33:13.053,,-195,22,1031,-630,210,1680,-187,148,-393
18:33:13.072,,-193,31,1029,-140,0,2380,-201,147,-393
18:33:13.091,,-192,42,1027,70,0,2800,-199,142,-397
18:33:13.094,>gest2_circle_ccw,,,,,,,,,
18:33:13.109,,-193,48,1029,-70,350,2800,-190,147,-397
18:33:13.128,,-197,50,1026,-280,700,2590,-201,148,-408
18:33:13.147,,-197,53,1028,0,770,2590,-201,141,-406
18:33:13.166,,-197,52,1030,560,420,2240,-205,145,-405
18:33:13.185,,-193,55,1024,1120,-210,1680,-196,150,-405
18:33:13.203,,-188,59,1027,1120,-140,1260,-204,147,-399
18:33:13.222,,-188,59,1027,1120,-140,1260,-196,151,-402
18:33:13.241,,-187,52,1032,140,280,910,-199,148,-408
18:33:13.260,,-190,46,1027,420,490,490,-187,153,-396
18:33:13.279,,-190,52,1024,1260,490,0,-204,151,-403
18:33:13.297,,-188,51,1021,910,490,0,-207,151,-406
18:33:13.316,,-187,48,1017,420,420,70,-195,148,-402
18:33:13.335,,-189,46,1016,490,420,0,-193,157,-399
18:33:13.354,,-188,42,1011,420,140,-140,-207,156,-402
18:33:13.372,,-191,43,1004,70,0,-140,-211,157,-408
18:33:13.391,,-192,39,1003,-700,-490,140,-201,150,-406
18:33:13.410,,-192,35,1002,-980,-1470,210,-196,148,-408
18:33:13.429,,-190,39,1004,-910,-2310,210,-204,148,-396
18:33:13.448,,-192,40,1000,-1610,-2870,630,-208,145,-403
18:33:13.466,,-192,37,1004,-2660,-3150,980,-192,148,-405
18:33:13.485,,-196,38,997,-3360,-3640,1260,-204,141,-397
18:33:13.504,,-190,34,993,-3570,-4970,1610,-199,141,-403
18:33:13.523,,-183,41,988,-3150,-6580,2240,-193,147,-397
18:33:13.542,,-179,54,993,-3220,-8400,3080,-190,142,-397
18:33:13.560,,-167,67,995,-3220,-10570,3220,-196,135,-396
18:33:13.579,,-158,92,1003,-2800,-12180,2730,-204,144,-393
18:33:13.598,,-142,107,1017,-3150,-13930,1400,-189,138,-406
18:33:13.617,,-116,126,1023,-2310,-16030,-70,-193,138,-397
18:33:13.635,,-92,160,1027,-560,-17360,-1190,-207,138,-394
18:33:13.654,,-75,174,1024,-1400,-18480,-3430,-196,133,-397
18:33:13.673,,-74,191,1032,-1330,-19600,-7350,-190,136,-400
18:33:13.692,,-68,243,1038,-2380,-21000,-12950,-192,124,-394
18:33:13.711,,-75,205,1058,-13090,-21420,-19880,-196,127,-399
18:33:13.729,,-65,129,1066,-15400,-21980,-27860,-201,133,-394
18:33:13.748,,-58,147,1083,-1400,-20790,-34860,-196,121,-388
18:33:13.767,,-56,183,1095,6230,-19390,-40810,-207,127,-378
18:33:13.786,,-41,153,1105,2100,-18200,-45360,-211,127,-387
18:33:13.804,,-29,162,1127,1400,-15820,-48440,-219,145,-387
18:33:13.823,,-20,233,1143,4900,-13090,-50610,-219,145,-387
18:33:13.842,,-8,325,1136,2310,-9660,-53830,-210,142,-387
18:33:13.861,,-2,330,1110,-10640,-6440,-59430,-235,142,-384
18:33:13.880,,-9,277,1113,-17640,-4970,-67480,-229,154,-384
18:33:13.898,,-3,210,1146,-8120,-7910,-77770,-231,157,-379
18:33:13.917,,0,200,1194,13160,-13580,-88340,-234,166,-378
18:33:13.936,,-22,244,1249,28140,-17990,-95690,-252,165,-370
18:33:13.955,,-41,210,1304,27440,-20580,-99680,-264,177,-375
18:33:13.974,,-39,139,1383,23520,-19810,-103110,-258,186,-375
18:33:13.992,,-16,100,1475,21210,-14560,-105840,-271,193,-363
18:33:14.011,,-2,-9,1531,13300,-5250,-106890,-288,208,-372
18:33:14.030,,4,-154,1554,11130,7000,-105700,-291,223,-372
18:33:14.049,,-7,-240,1576,19600,20790,-101850,-282,235,-363
18:33:14.067,,-5,-332,1573,26460,35350,-93730,-297,246,-358
18:33:14.086,,-10,-405,1565,28980,52010,-82110,-316,261,-360
18:33:14.105,,-77,-397,1531,29540,71540,-67480,-313,274,-358
18:33:14.124,,-142,-360,1467,23800,91140,-50960,-309,294,-352
18:33:14.143,,-218,-353,1441,14700,108990,-33390,-319,306,-358
18:33:14.161,,-246,-413,1393,13580,122570,-18760,-319,327,-351
18:33:14.180,,-283,-425,1297,27790,134120,-8400,-318,339,-348
18:33:14.199,,-306,-380,1178,45010,142870,-350,-315,354,-351
18:33:14.218,,-334,-312,1071,47250,149590,9030,-334,364,-322
18:33:14.237,,-346,-300,929,33110,153440,22120,-343,381,-325
18:33:14.255,,-364,-319,772,16240,154210,37170,-327,385,-327
18:33:14.274,,-390,-344,647,8470,151900,51380,-330,406,-310
18:33:14.293,,-420,-318,552,16380,146020,63210,-351,406,-315
18:33:14.312,,-463,-219,475,31780,137480,72520,-345,406,-309
18:33:14.330,,-463,-81,401,40950,127610,77910,-337,418,-303
18:33:14.349,,-451,27,339,35840,119000,80640,-355,420,-304
18:33:14.368,,-438,84,288,20230,112350,82460,-376,406,-295
18:33:14.387,,-438,78,252,560,106960,84770,-355,409,-294
18:33:14.406,,-429,-9,219,-15470,100030,87710,-342,411,-288
18:33:14.424,,-403,-77,200,-19460,90370,91490,-363,409,-295
18:33:14.443,,-360,-74,217,-15750,78960,97090,-367,387,-298
18:33:14.462,,-355,36,230,-14280,68810,105770,-357,387,-297
18:33:14.481,,-384,169,242,-21210,61110,118510,-352,375,-310
18:33:14.500,,-419,269,246,-36890,54180,130060,-367,363,-310
18:33:14.611,,-348,663,356,-77000,6930,106890,-286,289,-358
18:33:14.612,,-348,663,356,-77000,6930,106890,-286,289,-358
18:33:14.612,,-348,663,356,-77000,6930,106890,-286,289,-358
18:33:14.613,,-348,663,356,-77000,6930,106890,-286,289,-358
18:33:14.613,,-348,663,356,-77000,6930,106890,-286,289,-358
18:33:14.614,,-348,663,356,-77000,6930,106890,-286,289,-358
18:33:14.631,,-328,622,321,-91560,-5460,92540,-298,271,-363
18:33:14.650,,-326,645,365,-97580,-19530,78960,-294,265,-379
18:33:14.669,,-331,663,447,-99540,-35770,68880,-267,244,-391
18:33:14.687,,-299,694,505,-104860,-53200,55930,-249,240,-405
18:33:14.706,,-271,709,593,-112280,-69440,40950,-240,219,-411
18:33:14.725,,-243,692,686,-118020,-83650,24500,-225,211,-405
18:33:14.744,,-189,638,818,-114030,-95620,5670,-207,208,-409
18:33:14.762,,-156,612,917,-103670,-101920,-16870,-190,186,-417
18:33:14.781,,-144,536,1004,-92750,-104650,-38010,-193,181,-418
18:33:14.800,,-142,445,1099,-82670,-104930,-52220,-193,181,-418
18:33:14.819,,-146,365,1152,-74340,-103950,-59570,-187,168,-420
18:33:14.838,,-158,327,1157,-66500,-102550,-62860,-175,160,-415
18:33:14.856,,-152,316,1181,-58380,-101850,-63910,-177,145,-414
18:33:14.875,,-118,306,1238,-51800,-102410,-66640,-177,142,-400
18:33:14.894,,-95,303,1264,-44170,-103250,-70280,-177,135,-405
18:33:14.913,,-84,302,1290,-35000,-103390,-72030,-166,129,-409
18:33:14.932,,-51,316,1322,-27510,-101990,-72030,-172,114,-400
18:33:14.950,,-7,316,1347,-23870,-96600,-72380,-189,118,-397
18:33:14.969,,45,318,1368,-21560,-87150,-75670,-175,108,-390
18:33:14.988,,54,289,1371,-21980,-73850,-80500,-174,100,-381
18:33:15.007,,54,289,1371,-24990,-60550,-85260,-190,102,-381
18:33:15.025,,36,229,1376,-24990,-60550,-85260,-204,108,-379
18:33:15.044,,-16,158,1356,-27650,-48720,-88550,-198,106,-379
18:33:15.063,,-20,86,1329,-24780,-39830,-91000,-202,108,-376
18:33:15.082,,-29,69,1315,-16870,-30520,-91350,-214,108,-367
18:33:15.101,,-28,47,1308,-11830,-20650,-89880,-217,118,-378
18:33:15.119,,-76,-4,1319,-10290,-10500,-88690,-220,123,-372
18:33:15.138,,-121,-69,1313,-9870,-1190,-87150,-235,130,-370
18:33:15.157,,-127,-140,1293,-8190,7140,-83370,-247,132,-373
18:33:15.176,,-135,-193,1249,-8120,16450,-76370,-232,151,-375
18:33:15.194,,-153,-238,1198,-10150,25480,-65800,-243,154,-372
18:33:15.213,,-178,-251,1117,-9520,32060,-54320,-252,168,-381
18:33:15.232,,-225,-213,1053,-4060,35770,-43890,-258,184,-384
18:33:15.251,,-260,-169,999,-420,35980,-35210,-240,184,-384
18:33:15.270,,-284,-144,946,-140,32900,-27790,-246,190,-385
18:33:15.288,,-299,-123,922,1540,28140,-20860,-243,192,-391
18:33:15.307,,-304,-103,915,2660,22820,-14490,-255,187,-384
18:33:15.326,,-296,-90,912,2520,17780,-8610,-253,198,-375
18:33:15.345,,-280,-80,929,1960,13720,-3360,-246,201,-387
18:33:15.364,,-261,-62,950,1260,10710,1050,-261,202,-388
18:33:15.382,,-241,-46,951,1190,8260,4200,-250,196,-384
18:33:15.401,,-222,-14,958,1050,6650,6300,-253,201,-387
18:33:15.420,,-205,2,968,-560,5040,8050,-250,198,-381
18:33:15.439,,-202,13,974,-1050,3430,8890,-267,202,-391
18:33:15.457,,-198,41,981,-280,1890,8890,-255,195,-384
18:33:15.476,,-191,60,990,-1400,420,8750,-249,198,-396
18:33:15.495,,-182,63,1005,-4340,-280,8330,-247,198,-382
18:33:15.514,,-178,76,1019,-6160,-70,7420,-252,198,-391
18:33:15.533,,-184,85,1026,-7350,770,5880,-241,199,-390
18:33:15.551,,-189,90,1020,-7350,1260,4410,-244,201,-384
18:33:15.570,,-203,96,1032,-7070,2030,3150,-249,193,-393
18:33:15.589,,-215,96,1044,-8260,2240,1890,-247,190,-393
18:33:15.608,,-221,78,1049,-8470,1610,770,-240,186,-396
18:33:15.627,,-225,75,1059,-4270,70,-210,-237,193,-393
18:33:15.645,,-224,98,1064,-420,-1120,-840,-244,193,-391
18:33:15.664,,-220,97,1066,-770,-1680,-910,-247,187,-390
18:33:15.683,,-209,75,1071,-1750,-1260,-560,-243,189,-391
18:33:15.702,,-202,58,1073,-770,-420,-840,-231,195,-387
18:33:15.720,,-198,42,1067,1050,560,-1330,-243,190,-388
18:33:15.739,,-196,31,1052,2660,1750,-1750,-240,193,-394
18:33:15.758,,-196,25,1037,3080,3150,-1610,-240,193,-394
18:33:15.777,,-201,27,1023,2660,3780,-1120,-240,198,-390
18:33:15.796,,-205,19,1007,1750,3430,-280,-249,189,-390
18:33:15.814,,-205,22,996,2310,2730,630,-247,201,-399
18:33:15.833,,-211,32,996,2800,2240,1680,-243,198,-396
18:33:15.852,,-213,38,998,2520,1470,2170,-235,198,-390
18:33:15.871,,-215,49,996,2800,980,2170,-235,199,-381
18:33:15.890,,-219,60,997,1890,630,1820,-244,196,-384
18:33:15.908,,-216,55,1003,350,280,1470,-240,204,-388
18:33:15.927,,-220,54,1011,-490,350,1260,-228,198,-388
18:33:15.946,,-222,53,1014,-700,-140,1120,-244,195,-381
18:33:15.965,,-221,49,1022,0,-630,1260,-240,198,-388
18:33:15.983,,-221,50,1027,770,-1120,1050,-226,196,-381
18:33:16.002,,-219,48,1025,1610,-1540,560,-232,192,-384
18:33:16.021,,-215,51,1023,2590,-1750,210,-247,193,-405
18:33:16.040,,-214,54,1023,2450,-1610,560,-246,196,-393
18:33:16.059,,-216,51,1028,1540,-1470,1050,-241,199,-391
18:33:16.077,,-218,56,1027,1120,-1470,1400,-240,196,-390
18:33:16.096,,-217,55,1021,1190,-1610,1400,-252,192,-385
18:33:16.115,,-214,58,1029,1750,-1470,1190,-241,198,-393
18:33:16.134,,-212,62,1030,1190,-1050,1330,-231,198,-391
18:33:16.152,,-212,60,1029,-140,-420,1610,-246,196,-384
18:33:16.171,,-212,52,1037,-1050,70,1750,-247,187,-388
18:33:16.190,,-210,48,1032,-280,350,1610,-247,199,-390
18:33:16.209,,-207,57,1028,1260,770,1400,-241,195,-388
18:33:16.228,,-208,62,1025,490,1610,1470,-243,199,-382
18:33:16.246,,-209,56,1022,-1050,2030,1470,-255,192,-387
18:33:16.265,,-215,58,1016,-1120,2170,1400,-247,195,-391
18:33:16.284,,-217,60,1008,-490,1680,1190,-241,196,-387
18:33:16.303,,-215,62,1013,-490,1190,1330,-243,195,-388
18:33:16.322,,-214,59,1014,-910,910,1610,-246,192,-379
18:33:16.340,,-213,56,1017,-630,770,1750,-232,195,-382
18:33:16.359,,-212,54,1016,280,700,1470,-241,189,-391
18:33:16.378,,-213,57,1016,980,630,980,-249,196,-381
18:33:16.397,,-212,57,1014,630,700,980,-240,196,-393
18:33:16.415,,-212,57,1015,-210,910,1330,-237,195,-391
18:33:16.434,,-212,59,1012,-1050,910,1470,-247,192,-396
18:33:16.453,,-209,57,1011,-1540,840,1540,-246,199,-391
18:33:16.472,,-210,59,1016,-1610,840,1540,-247,201,-394
18:33:16.491,,-213,54,1013,-1890,840,1680,-235,196,-390
18:33:16.509,,-216,49,1015,-770,560,1750,-252,195,-396
18:33:16.528,,-216,59,1013,1330,280,1400,-246,192,-390
18:33:16.547,,-217,72,1009,1540,490,1260,-243,193,-394
18:33:16.566,,-219,71,1010,-560,770,1260,-237,198,-394
18:33:16.584,,-218,61,1007,-1750,630,980,-244,190,-393
18:33:16.603,,-222,64,1008,-1050,280,630,-246,199,-394
18:33:16.622,,-221,66,1007,-1190,-420,280,-234,195,-400
18:33:16.641,,-219,63,1010,-1540,-840,140,-241,198,-390
18:33:16.660,,-219,64,1016,-1470,-1330,-70,-252,196,-396
18:33:16.678,,-218,59,1020,-630,-1820,-420,-241,189,-396
18:33:16.697,,-216,59,1023,630,-1890,-630,-238,201,-397
18:33:16.716,,-218,59,1023,1120,-1540,-910,-238,201,-397
18:33:16.735,,-217,54,1021,1260,-980,-1120,-241,196,-394
18:33:16.754,,-219,53,1018,630,-210,-980,-250,198,-390
18:33:16.772,,-222,50,1015,-700,140,-490,-246,202,-390
18:33:16.791,,-227,49,1011,-1680,0,140,-232,198,-393
18:33:16.810,,-227,49,1011,-1680,0,140,-241,196,-390
18:33:16.829,,-229,50,1014,-1330,-700,630,-244,195,-391
18:33:16.847,,-226,57,1018,-420,-1470,980,-244,190,-390
18:33:16.866,,-222,63,1018,0,-1680,1120,-232,187,-385
18:33:16.885,,-217,68,1024,-280,-1540,840,-244,183,-388
18:33:16.904,,-215,66,1024,-1050,-1050,350,-243,192,-390
18:33:16.923,,-214,63,1021,-1330,-490,-350,-243,190,-391
18:33:16.941,,-213,55,1023,-1190,-70,-700,-243,192,-388
18:33:16.960,,-210,54,1023,-770,420,-630,-249,193,-391
18:33:16.979,,-215,58,1023,-1260,980,-210,-243,190,-397
18:33:16.998,,-221,54,1021,-2310,1050,210,-228,192,-388
18:33:17.016,,-223,57,1022,-1890,770,280,-240,195,-382
18:33:17.035,,-226,59,1020,-1400,280,140,-249,193,-385
18:33:17.054,,-226,58,1016,-980,-280,-70,-235,193,-394
18:33:17.073,,-222,57,1016,-280,-560,-280,-229,186,-387
18:33:17.092,,-221,55,1019,0,-420,-280,-244,196,-394
18:33:17.110,,-222,56,1026,-420,-70,-210,-250,199,-402
18:33:17.129,,-221,49,1024,-1190,0,-210,-238,199,-397
18:33:17.148,,-219,43,1023,-910,-140,-210,-241,198,-387
18:33:17.167,,-215,47,1021,-280,-210,210,-247,195,-396
18:33:17.186,,-216,53,1018,-280,-140,840,-247,195,-397
18:33:17.204,,-218,60,1014,-420,0,1190,-235,198,-390
18:33:17.223,,-220,70,1013,-630,350,980,-237,198,-382
18:33:17.242,,-219,64,1017,-1190,350,560,-246,190,-394
18:33:17.261,,-220,59,1019,-910,140,140,-244,187,-385
18:33:17.276,<gest2_circle_ccw,,,,,,,,,
18:33:17.279,,-223,60,1022,-70,70,-70,-238,195,-391
18:33:17.298,,-223,59,1021,-210,-210,-210,-235,187,-390
18:33:17.317,,-228,55,1018,-490,-350,-210,-252,193,-388
18:33:17.336,,-229,53,1022,-70,-910,0,-249,199,-390
18:33:17.355,,-229,56,1022,420,-1330,210,-228,189,-396
18:33:17.373,,-222,55,1023,770,-1470,280,-241,189,-384
18:33:17.392,,-219,57,1026,560,-980,280,-247,189,-391
18:33:17.411,,-219,53,1023,-70,-420,350,-241,190,-388
18:33:17.430,,-223,53,1018,-210,-70,420,-234,193,-384
18:33:17.449,,-225,58,1017,-280,0,490,-249,193,-390
18:33:17.467,,-226,57,1017,-910,-210,630,-246,190,-391
18:33:17.486,,-224,53,1016,-1260,-630,770,-234,195,-393
18:33:17.505,,-221,54,1017,-1050,-910,840,-237,192,-376
18:33:17.524,,-218,54,1015,-910,-980,980,-240,195,-394
18:33:17.542,,-219,50,1021,-840,-910,1330,-247,196,-390
18:33:17.561,,-221,54,1028,-350,-980,1470,-234,187,-387
18:33:17.580,,-220,59,1021,-280,-1120,1610,-235,193,-393
18:33:17.599,,-217,60,1024,-630,-1120,1540,-246,192,-387
18:33:17.618,,-218,60,1024,-490,-910,1330,-234,192,-391
18:33:17.636,,-218,61,1020,-420,-700,1120,-231,187,-393
18:33:17.655,,-217,61,1019,-560,-700,1120,-243,187,-387
18:33:17.674,,-216,60,1016,-840,-560,1190,-237,181,-381
18:33:17.693,,-217,58,1020,-910,-350,1400,-237,181,-381
18:33:17.711,,-220,56,1023,-980,-350,1330,-234,193,-394
18:33:17.730,,-221,56,1019,-840,-350,1330,-229,189,-390
18:33:17.749,,-218,58,1022,-770,-350,1470,-244,189,-397
18:33:17.768,,-217,57,1021,-980,-210,1400,-241,190,-399
18:33:17.787,,-221,58,1018,-1120,-280,1050,-240,189,-391
18:33:17.805,,-224,60,1019,-910,-560,910,-231,195,-391
18:33:17.824,,-225,64,1021,-1330,-910,980,-238,189,-391
18:33:17.843,,-221,64,1025,-1610,-1400,980,-241,192,-391
18:33:17.862,,-214,65,1034,-1120,-1610,840,-238,198,-385
18:33:17.881,,-210,66,1035,-630,-1260,630,-222,186,-397
18:33:17.899,,-212,69,1033,-210,-630,280,-247,189,-394
18:33:17.918,,-216,69,1028,-490,140,-280,-237,189,-393
18:33:17.937,,-217,65,1024,-1190,630,-630,-226,187,-396
18:33:17.956,,-219,59,1020,-1470,700,-770,-240,193,-396
18:33:17.974,,-220,55,1016,-1330,630,-630,-247,187,-393
18:33:17.993,,-219,52,1020,-770,280,-490,-237,184,-388
18:33:18.012,,-219,55,1017,-70,-280,-420,-237,189,-390
18:33:18.031,,-215,60,1014,-70,-490,-490,-238,189,-391
18:33:18.050,,-214,62,1016,-700,-140,-350,-241,195,-397
18:33:18.068,,-212,63,1018,-1540,280,-420,-238,193,-388
18:33:18.087,,-214,59,1018,-2310,700,-630,-229,189,-396
18:33:18.106,,-217,55,1016,-2240,700,-980,-246,190,-394
18:33:18.125,,-220,57,1012,-1750,280,-1400,-243,190,-390
18:33:18.143,,-222,55,1013,-1470,-420,-1470,-228,192,-390
18:33:18.162,,-223,56,1012,-1190,-980,-1330,-234,190,-394
18:33:18.181,,-222,56,1016,-1190,-1330,-1190,-241,190,-393
18:33:18.200,,-220,49,1024,-1400,-1400,-1190,-240,184,-394
18:33:18.219,,-221,45,1025,-1330,-1260,-1050,-229,186,-399
18:33:18.237,,-220,47,1029,-1330,-910,-840,-243,190,-393
18:33:18.256,,-223,43,1024,-1890,-560,-630,-247,195,-400
18:33:18.275,,-222,46,1026,-1890,-210,-560,-238,193,-397
18:33:18.294,,-224,47,1027,-1820,0,-350,-226,198,-396
18:33:18.313,,-225,51,1027,-1610,-280,-350,-240,189,-387
18:33:18.331,,-223,54,1026,-1260,-490,-280,-244,189,-393
18:33:18.350,,-223,53,1027,-1120,-490,-210,-234,195,-393
18:33:18.369,,-221,57,1027,-630,-490,-350,-232,183,-390
18:33:18.388,,-223,57,1030,-770,-350,-490,-241,187,-399
18:33:18.406,,-220,51,1028,-1330,-420,-560,-235,184,-394
18:33:18.425,,-217,50,1028,-1260,-280,-630,-228,187,-396
18:33:18.444,,-217,51,1027,-980,-70,-560,-243,190,-391
18:33:18.463,,-219,50,1023,-1260,210,-490,-235,187,-385
18:33:18.482,,-220,49,1020,-980,70,-560,-240,184,-393
18:33:18.500,,-223,52,1020,-630,0,-490,-223,183,-391
18:33:18.519,,-226,50,1019,-770,-350,-560,-232,184,-384
18:33:18.538,,-225,47,1020,-770,-700,-700,-238,184,-394
18:33:18.557,,-221,41,1021,-210,-980,-630,-231,190,-396
18:33:18.576,,-219,42,1023,420,-910,-420,-232,186,-388
18:33:18.594,,-219,42,1023,420,-910,-420,-235,189,-399
18:33:18.613,,-219,46,1021,210,-420,-140,-238,190,-397
18:33:18.632,,-219,50,1019,-560,210,70,-232,187,-390
18:33:18.651,,-223,52,1018,-1470,490,140,-232,187,-390
18:33:18.669,,-223,51,1017,-1890,140,0,-231,196,-405
18:33:18.688,,-222,52,1016,-1330,-420,-70,-235,196,-390
18:33:18.707,,-221,54,1019,-840,-770,-350,-238,184,-402
18:33:18.726,,-219,51,1021,-980,-910,-700,-229,192,-399
18:33:18.745,,-218,46,1024,-1330,-840,-700,-237,189,-393
18:33:18.763,,-217,43,1025,-1400,-700,-490,-237,190,-400
18:33:18.782,,-218,45,1025,-1400,-700,-420,-234,192,-397
18:33:18.801,,-218,47,1022,-1190,-770,-490,-228,181,-388
