Sensors' Acquisition [Hz]: Acc@52.0 Gyro@52.0 Mag@52.0 
hh:mm:ss.ms, Annotation , AccX [mg], AccY, AccZ, GyroX [mdps], GyroY, GyroZ, MagX [mgauss], MagY, MagZ
10:50:22.376,,-130,9,1084,-1610,70,-4340,124,378,-306
10:50:22.395,,-133,9,1081,-1400,140,-3500,138,381,-301
10:50:22.413,,-133,5,1078,-1750,-70,-2240,136,378,-297
10:50:22.432,,-127,6,1081,-1540,-350,-1050,126,367,-294
10:50:22.451,,-122,13,1085,-1120,-350,-140,124,367,-300
10:50:22.470,,-118,18,1082,-560,-140,350,109,379,-298
10:50:22.489,,-110,26,1081,140,420,700,117,382,-292
10:50:22.507,,-101,33,1064,-280,1400,560,120,378,-289
10:50:22.526,,-98,23,1054,-1960,2310,-350,112,375,-291
10:50:22.545,,-100,6,1052,-3010,2380,-910,115,376,-285
10:50:22.564,,-96,0,1054,-2380,1050,-770,100,373,-279
10:50:22.582,,-90,10,1056,-1330,-490,-420,105,379,-288
10:50:22.601,,-84,25,1063,-840,-1260,-210,112,381,-279
10:50:22.620,,-85,36,1062,-1540,-980,-420,105,379,-286
10:50:22.639,,-98,34,1069,-2450,-280,-770,112,384,-279
10:50:22.658,,-102,27,1075,-2170,-350,-1050,117,376,-270
10:50:22.676,,-99,31,1075,-700,-910,-1050,109,375,-268
10:50:22.695,,-90,33,1077,420,-1120,-980,108,372,-276
10:50:22.714,,-81,33,1074,560,-420,-980,109,372,-270
10:50:22.733,,-76,28,1067,-280,910,-1120,120,381,-270
10:50:22.751,,-76,18,1061,-1890,2030,-1680,123,379,-276
10:50:22.770,,-82,7,1050,-2660,2100,-2030,118,379,-274
10:50:22.789,,-84,7,1048,-1960,910,-2030,117,372,-271
10:50:22.808,,-84,15,1053,-420,-560,-1960,112,376,-279
10:50:22.826,,-78,30,1059,1190,-1470,-1890,112,388,-283
10:50:22.845,,-71,42,1064,1610,-840,-2730,114,387,-276
10:50:22.864,,-72,36,1056,-420,980,-4130,121,381,-264
10:50:22.883,,-82,10,1050,-3290,2730,-5530,126,376,-259
10:50:22.902,,-98,-11,1051,-4970,2730,-5600,126,376,-259
10:50:22.920,,-108,-13,1061,-3710,700,-4200,121,373,-258
10:50:22.939,,-109,14,1074,-770,-1820,-2100,121,370,-258
10:50:22.958,,-105,42,1084,910,-2940,-1260,123,384,-258
10:50:22.977,,-97,53,1096,630,-2380,-2100,127,390,-259
10:50:22.995,,-95,45,1104,-350,-630,-3430,121,379,-267
10:50:23.014,,-94,28,1092,-1190,1050,-4340,136,382,-273
10:50:23.033,,-98,14,1082,-1610,2100,-4620,132,379,-268
10:50:23.052,,-105,4,1078,-1260,2100,-4270,135,384,-273
10:50:23.071,,-107,8,1071,210,1260,-3640,127,391,-280
10:50:23.089,,-104,19,1067,1330,350,-3360,127,399,-282
10:50:23.108,,-105,26,1066,1540,350,-3220,130,397,-279
10:50:23.127,,-107,29,1062,1190,910,-2940,123,394,-288
10:50:23.146,,-109,25,1052,-140,1540,-3080,115,390,-282
10:50:23.164,,-110,11,1045,-1960,1400,-3220,111,390,-295
10:50:23.183,,-114,1,1057,-2380,210,-2800,115,403,-295
10:50:23.202,,-112,7,1064,-1330,-1610,-1680,126,411,-298
10:50:23.221,,-105,27,1075,-70,-2800,-630,127,405,-298
10:50:23.239,,-100,38,1087,-210,-2450,-350,127,408,-280
10:50:23.258,,-94,33,1093,-1400,-1400,-1330,121,399,-285
10:50:23.277,,-87,17,1097,-2030,-490,-2870,114,399,-280
10:50:23.296,,-81,7,1099,-1890,210,-3640,121,406,-280
10:50:23.315,,-88,9,1092,-910,700,-3080,126,409,-285
10:50:23.333,,-98,19,1086,630,1120,-1820,120,415,-271
10:50:23.352,,-102,35,1075,1960,1470,-1190,121,411,-276
10:50:23.371,,-100,43,1058,1820,2100,-1610,124,412,-265
10:50:23.390,,-98,36,1045,-280,2730,-2450,121,397,-271
10:50:23.408,,-101,15,1038,-2660,2310,-2730,123,406,-273
10:50:23.427,,-112,1,1046,-2520,140,-2240,130,399,-273
10:50:23.431,>gest8_up,,,,,,,,,
10:50:23.446,,-109,7,1064,770,-3290,-1260,126,409,-277
10:50:23.465,,-91,32,1078,4690,-5670,-420,130,405,-267
10:50:23.484,,-67,50,1080,5320,-5040,-1260,120,394,-264
10:50:23.502,,-56,42,1074,2100,-1330,-3290,121,397,-261
10:50:23.521,,-74,9,1064,-2240,2870,-5250,130,399,-261
10:50:23.540,,-94,-23,1056,-3990,4340,-5740,139,391,-267
10:50:23.559,,-102,-25,1047,-2660,2940,-4200,136,414,-262
10:50:23.577,,-110,-2,1038,-840,630,-1890,139,403,-264
10:50:23.596,,-115,25,1051,700,-1470,-280,141,400,-255
10:50:23.615,,-116,53,1061,2380,-2590,350,138,394,-259
10:50:23.634,,-100,66,1053,2660,-2590,-560,142,391,-258
10:50:23.653,,-85,54,1049,280,-1260,-2520,145,403,-270
10:50:23.671,,-87,29,1043,-2940,350,-4410,144,400,-270
10:50:23.690,,-92,4,1038,-5110,140,-5180,145,408,-255
10:50:23.709,,-107,-4,1042,-6090,-2030,-4900,147,406,-256
10:50:23.728,,-107,-4,1042,-6090,-2030,-4900,142,402,-256
10:50:23.746,,-122,-13,1055,-5880,-5530,-3850,139,397,-268
10:50:23.765,,-121,-10,1078,-2730,-9800,-2380,147,400,-274
10:50:23.784,,-121,13,1109,2240,-12670,-770,148,409,-267
10:50:23.803,,-128,29,1135,5250,-13580,210,150,405,-268
10:50:23.822,,-135,30,1187,7350,-13790,910,150,400,-271
10:50:23.840,,-149,53,1270,8890,-13930,2660,150,400,-271
10:50:23.859,,-145,35,1369,9660,-15050,5320,142,391,-270
10:50:23.878,,-128,58,1516,15260,-15540,8750,136,391,-277
10:50:23.897,,-103,107,1651,20300,-12250,13300,138,393,-271
10:50:23.915,,-78,137,1752,21140,-4690,18410,135,396,-279
10:50:23.934,,-58,149,1856,22750,6790,23030,130,405,-282
10:50:23.953,,-11,149,1876,27300,21560,26110,123,403,-271
10:50:23.972,,27,133,1817,33950,40740,24780,123,400,-258
10:50:23.990,,11,114,1770,47040,63840,20370,114,399,-253
10:50:24.009,,0,79,1698,61390,85750,15330,99,412,-247
10:50:24.028,,-25,88,1554,75040,107240,9450,100,421,-222
10:50:24.047,,-17,28,1357,78750,124460,3290,103,439,-193
10:50:24.066,,-46,14,1157,77210,141260,-910,93,441,-175
10:50:24.084,,-77,-33,1008,69720,152040,70,93,447,-153
10:50:24.103,,-85,-126,840,62930,155120,4340,90,453,-144
10:50:24.122,,-110,-112,656,61880,154980,9240,79,457,-124
10:50:24.141,,-133,-107,468,59850,148540,14770,85,465,-100
10:50:24.159,,-151,-56,303,58520,136500,18620,73,475,-78
10:50:24.178,,-183,-1,175,52150,121520,22470,75,466,-57
10:50:24.197,,-213,99,110,45290,103460,26040,73,463,-46
10:50:24.216,,-243,194,64,38360,83790,29050,63,468,-36
10:50:24.235,,-287,278,28,31010,63000,29680,55,469,-37
10:50:24.253,,-265,350,-3,23940,38500,27090,52,468,-27
10:50:24.272,,-277,439,-48,13300,21210,18550,63,466,-25
10:50:24.291,,-357,526,0,-2170,6370,8680,51,466,-19
10:50:24.310,,-380,503,30,-21490,-10990,-700,61,466,-12
10:50:24.328,,-420,482,87,-38080,-26320,-12180,49,456,-28
10:50:24.347,,-453,447,149,-48720,-40320,-21560,57,457,-37
10:50:24.366,,-443,365,173,-58450,-54180,-28910,64,457,-60
10:50:24.385,,-431,305,246,-67200,-67060,-35630,70,469,-73
10:50:24.404,,-427,240,376,-75320,-78050,-38290,79,460,-72
10:50:24.422,,-413,101,516,-80290,-89320,-40250,93,454,-84
10:50:24.441,,-363,12,647,-75040,-100730,-47250,97,450,-112
10:50:24.460,,-312,-34,742,-60970,-109200,-54390,102,453,-132
10:50:24.479,,-283,-85,829,-43120,-115500,-56980,102,454,-145
10:50:24.497,,-258,-66,924,-30660,-120470,-57890,117,459,-153
10:50:24.516,,-230,-24,1063,-27230,-123830,-56000,136,457,-163
10:50:24.535,,-222,-17,1209,-33460,-126630,-51800,151,436,-184
10:50:24.554,,-197,-2,1342,-40390,-129640,-47530,150,421,-186
10:50:24.572,,-156,-11,1463,-42000,-131250,-44590,159,418,-228
10:50:24.591,,-141,35,1594,-33740,-128170,-41090,159,424,-244
10:50:24.610,,-100,77,1685,-23520,-119630,-36890,168,408,-255
10:50:24.629,,-41,127,1741,-16520,-105560,-34160,169,403,-267
10:50:24.648,,6,126,1789,-17780,-86240,-31780,175,396,-268
10:50:24.666,,33,98,1809,-26250,-63280,-29820,177,387,-271
10:50:24.685,,30,27,1745,-35070,-40460,-25830,186,378,-273
10:50:24.704,,-16,-55,1620,-35910,-20440,-19810,190,387,-279
10:50:24.723,,-61,-70,1512,-25900,-6370,-14350,199,394,-285
10:50:24.741,,-81,-47,1414,-12460,1470,-7910,196,391,-273
10:50:24.760,,-79,3,1321,-2660,6930,-2870,204,390,-282
10:50:24.779,,-73,17,1215,1050,11550,-280,204,390,-282
10:50:24.798,,-64,15,1120,1540,14980,350,205,381,-267
10:50:24.817,,-61,0,1052,840,17360,1190,213,373,-274
10:50:24.835,,-60,-12,1014,490,17640,2590,220,384,-277
10:50:24.854,,-64,-24,998,560,16310,3850,208,382,-277
10:50:24.873,,-57,-21,997,1750,13440,4410,211,385,-277
10:50:24.892,,-52,-6,1007,4200,10010,4620,202,384,-265
10:50:24.910,,-53,18,1010,6020,7350,4760,195,382,-268
10:50:24.929,,-62,41,1015,5530,6090,4690,193,390,-279
10:50:24.948,,-71,47,1033,3290,5600,3850,186,390,-285
10:50:24.967,,-77,41,1042,1610,5250,2100,186,399,-282
10:50:24.986,,-74,33,1052,2380,4760,490,192,390,-280
10:50:25.004,,-76,37,1048,3290,4760,-700,177,403,-268
10:50:25.023,,-84,30,1043,1610,5040,-1260,180,397,-265
10:50:25.042,,-93,17,1043,-980,4620,-1540,175,394,-268
10:50:25.061,,-99,9,1059,-1680,3220,-2030,174,399,-267
10:50:25.079,,-100,9,1060,-210,1190,-2660,177,402,-276
10:50:25.098,,-100,11,1063,1890,-280,-2590,183,406,-265
10:50:25.117,,-108,10,1056,2730,-420,-2310,187,402,-265
10:50:25.136,,-110,2,1056,2170,-280,-2100,183,394,-270
10:50:25.154,,-100,-8,1058,980,-350,-2730,181,399,-265
10:50:25.173,,-84,-17,1058,-210,-140,-3500,180,406,-277
10:50:25.192,,-91,-19,1056,-980,770,-2800,186,414,-277
10:50:25.211,,-107,-13,1063,-910,1540,-560,184,408,-273
10:50:25.230,,-103,-2,1067,350,770,1400,183,405,-264
10:50:25.248,,-85,19,1059,1960,350,2170,189,409,-258
10:50:25.267,,-78,38,1057,1750,1260,1750,184,402,-258
10:50:25.286,,-80,35,1057,-280,2380,1050,184,405,-253
10:50:25.305,,-83,24,1053,-1680,2940,980,187,408,-267
10:50:25.323,,-84,29,1049,-1960,2800,1120,187,412,-261
10:50:25.342,,-85,33,1054,-2660,1820,420,184,409,-253
10:50:25.361,,-83,31,1065,-3290,210,-630,190,408,-252
10:50:25.380,,-81,33,1077,-2240,-1610,-1750,192,411,-250
10:50:25.399,,-89,37,1085,0,-2660,-2030,190,408,-261
10:50:25.417,,-94,45,1092,2170,-2520,-1610,189,408,-262
10:50:25.436,,-93,43,1083,2590,-1190,-1750,192,409,-262
10:50:25.455,,-85,25,1066,1050,840,-3220,201,418,-252
10:50:25.474,,-83,0,1056,-1540,2660,-4620,193,408,-252
10:50:25.492,,-89,-22,1050,-4130,2940,-4410,195,403,-241
10:50:25.511,,-89,-22,1050,-4130,2940,-4410,201,400,-243
10:50:25.530,,-94,-29,1058,-4690,1190,-2520,214,405,-243
10:50:25.549,,-99,-11,1076,-2800,-1330,-210,225,402,-252
10:50:25.567,,-104,20,1087,-700,-3430,980,220,402,-261
10:50:25.586,,-98,39,1099,70,-4410,560,220,406,-259
10:50:25.605,,-89,45,1108,-140,-3640,-840,202,391,-259
10:50:25.624,,-81,28,1097,-700,-1470,-2240,196,397,-262
10:50:25.643,,-78,8,1080,-1190,1260,-2590,205,403,-265
10:50:25.661,,-78,-11,1071,-2380,3150,-2450,202,397,-270
10:50:25.680,,-77,-25,1064,-3080,3150,-1750,202,402,-267
10:50:25.699,,-81,-18,1065,-1540,1890,-210,199,403,-259
10:50:25.718,,-83,1,1067,980,210,1120,199,403,-259
10:50:25.736,,-81,31,1070,2590,-560,1750,198,400,-265
10:50:25.755,,-83,46,1065,1960,140,1260,190,412,-268
10:50:25.774,,-85,40,1063,420,980,-280,189,402,-270
10:50:25.793,,-86,20,1062,-420,1400,-2100,193,411,-268
10:50:25.812,,-84,3,1056,70,1260,-2940,190,406,-259
10:50:25.830,,-81,-2,1056,1190,840,-2800,195,397,-262
10:50:25.849,,-77,0,1059,1820,560,-2310,190,402,-256
10:50:25.868,,-74,8,1053,1610,700,-2100,195,406,-265
10:50:25.887,,-78,14,1053,490,1120,-2450,187,411,-259
10:50:25.905,,-91,10,1061,-560,1260,-2940,196,418,-264
10:50:25.924,,-102,10,1066,280,700,-3080,208,420,-258
10:50:25.943,,-105,19,1063,1750,70,-2940,196,411,-265
10:50:25.962,,-99,20,1061,1610,0,-3080,192,411,-261
10:50:25.981,,-95,11,1060,140,490,-3780,193,414,-256
10:50:25.999,,-95,-1,1057,-1190,980,-4270,183,405,-264
10:50:26.018,,-103,-11,1061,-1750,980,-4060,202,414,-258
10:50:26.037,,-113,-7,1063,-910,210,-2870,201,415,-259
10:50:26.056,,-119,9,1064,560,-770,-1470,196,408,-255
10:50:26.074,,-118,28,1072,1330,-1470,-1120,199,411,-255
10:50:26.093,,-108,31,1074,1330,-1540,-1680,198,405,-255
10:50:26.112,,-100,22,1074,910,-840,-2730,193,415,-259
10:50:26.131,,-98,10,1071,-280,420,-3570,198,417,-255
10:50:26.149,,-100,-8,1067,-2030,1120,-3780,202,414,-250
10:50:26.168,,-104,-20,1071,-2380,630,-3290,198,414,-256
10:50:26.187,,-106,-16,1071,-1330,-770,-2520,199,411,-247
10:50:26.206,,-113,1,1079,280,-2030,-1470,199,412,-247
10:50:26.225,,-114,19,1088,1400,-2590,-630,201,415,-244
10:50:26.243,,-106,29,1091,1960,-2380,-700,202,417,-238
10:50:26.262,,-99,32,1087,1890,-1190,-1470,216,415,-229
10:50:26.281,,-96,18,1078,420,350,-2240,231,406,-240
10:50:26.300,,-96,-4,1070,-910,1190,-2450,231,406,-243
10:50:26.318,,-96,-12,1069,-490,910,-1820,219,391,-249
10:50:26.337,,-92,0,1066,770,0,-1050,217,393,-256
10:50:26.356,,-93,15,1059,980,-560,-560,210,405,-262
10:50:26.375,,-100,24,1060,420,-560,-630,210,403,-261
10:50:26.393,,-104,27,1067,280,-420,-700,207,400,-256
10:50:26.412,,-105,25,1064,420,-490,-1120,207,408,-265
10:50:26.426,<gest8_up,,,,,,,,,
10:50:26.431,,-99,20,1064,700,-630,-1540,202,400,-259
10:50:26.450,,-93,13,1070,840,-560,-1470,198,399,-258
10:50:26.469,,-81,7,1066,840,-630,-1050,202,409,-253
10:50:26.487,,-75,10,1066,980,0,-700,201,406,-259
10:50:26.506,,-80,16,1057,420,980,-770,201,409,-258
10:50:26.525,,-87,21,1052,-280,1540,-1260,202,403,-253
10:50:26.544,,-95,17,1052,-1120,1400,-2170,204,397,-258
10:50:26.562,,-96,8,1056,-1330,420,-2940,193,400,-259
10:50:26.581,,-92,7,1064,-210,-770,-3360,195,403,-259
10:50:26.600,,-95,12,1065,560,-1260,-3500,196,409,-258
10:50:26.619,,-99,13,1068,420,-1260,-3360,199,406,-255
10:50:26.638,,-107,9,1072,-70,-980,-3010,190,406,-249
10:50:26.656,,-112,3,1074,-210,-980,-2870,190,406,-249
10:50:26.675,,-113,3,1077,420,-1190,-2520,190,399,-249
10:50:26.694,,-113,9,1073,1190,-1120,-1820,198,400,-244
10:50:26.713,,-108,12,1070,1400,-700,-1120,199,405,-253
10:50:26.731,,-101,9,1070,770,-70,-1260,193,399,-250
10:50:26.750,,-92,0,1063,-280,490,-1820,196,406,-243
10:50:26.769,,-91,-7,1057,-1470,840,-2240,204,400,-249
10:50:26.788,,-99,-12,1056,-1960,560,-1820,199,391,-238
10:50:26.807,,-107,-3,1058,-1050,-350,-700,201,394,-246
10:50:26.825,,-111,17,1061,280,-1260,280,195,393,-249
10:50:26.844,,-103,26,1069,630,-1890,420,199,396,-250
10:50:26.863,,-92,26,1069,280,-1890,-210,201,393,-237
10:50:26.882,,-93,26,1068,-210,-1050,-840,208,385,-240
10:50:26.900,,-100,16,1071,-1120,-350,-840,220,384,-249
10:50:26.919,,-104,10,1071,-1050,-280,-140,220,384,-250
10:50:26.938,,-95,16,1063,-560,-840,350,231,387,-256
10:50:26.957,,-87,22,1054,-1120,-1190,-210,226,381,-262
10:50:26.975,,-93,21,1053,-2030,-1260,-1050,238,382,-267
10:50:26.994,,-102,15,1063,-2030,-1820,-1260,235,384,-277
10:50:27.013,,-100,13,1074,-1190,-2940,-1330,232,373,-274
10:50:27.032,,-85,15,1079,-560,-3990,-1890,222,381,-271
10:50:27.051,,-77,18,1083,-980,-3850,-2660,214,388,-283
10:50:27.069,,-85,8,1092,-1960,-3010,-2870,216,391,-282
10:50:27.088,,-94,-3,1099,-1330,-2520,-2240,214,393,-282
10:50:27.107,,-92,6,1095,560,-2030,-1540,199,397,-277
10:50:27.126,,-86,18,1084,770,-770,-1400,196,399,-273
10:50:27.144,,-89,11,1074,-1190,700,-2030,196,400,-279
10:50:27.163,,-95,-8,1079,-2030,1190,-2660,193,397,-271
10:50:27.182,,-100,-12,1077,-770,630,-2170,189,397,-271
10:50:27.201,,-101,2,1075,840,-70,-630,193,403,-276
10:50:27.220,,-96,17,1071,1050,-280,490,196,406,-270
10:50:27.238,,-89,22,1068,-140,-70,0,195,399,-270
10:50:27.257,,-95,20,1065,-910,70,-1400,198,396,-262
10:50:27.276,,-100,11,1071,-350,-420,-2170,187,399,-273
