Sensors' Acquisition [Hz]: Acc@52.0 Gyro@52.0 Mag@52.0 
hh:mm:ss.ms, Annotation , AccX [mg], AccY, AccZ, GyroX [mdps], GyroY, GyroZ, MagX [mgauss], MagY, MagZ
13:21:24.395,,-173,-94,1041,210,-490,-770,376,64,-99
13:21:24.414,,-173,-92,1044,420,-490,-700,381,66,-100
13:21:24.433,,-172,-90,1043,280,-280,-700,381,58,-109
13:21:24.452,,-174,-91,1039,280,140,-910,378,55,-99
13:21:24.470,,-177,-92,1037,280,350,-1190,384,55,-96
13:21:24.489,,-180,-97,1031,0,280,-1260,378,66,-105
13:21:24.508,,-180,-99,1030,140,0,-1260,384,58,-100
13:21:24.527,,-180,-98,1030,70,-350,-1120,382,55,-99
13:21:24.546,,-179,-95,1030,-210,-490,-1050,381,64,-99
13:21:24.564,,-179,-95,1029,-560,-420,-980,375,63,-97
13:21:24.583,,-181,-95,1032,-630,-420,-1050,385,61,-99
13:21:24.602,,-185,-94,1034,-630,-560,-910,384,63,-99
13:21:24.621,,-185,-96,1033,-630,-980,-840,393,61,-91
13:21:24.640,,-182,-96,1036,-490,-1260,-840,393,73,-93
13:21:24.658,,-177,-95,1039,-560,-1260,-700,378,66,-93
13:21:24.677,,-175,-98,1040,-840,-910,-490,393,58,-93
13:21:24.696,,-178,-99,1042,-840,-420,-280,378,70,-100
13:21:24.715,,-180,-96,1038,-840,-350,-280,393,75,-102
13:21:24.733,,-179,-94,1033,-910,-490,-280,387,61,-102
13:21:24.752,,-179,-94,1035,-1050,-770,-280,382,67,-97
13:21:24.771,,-180,-94,1038,-910,-1050,-350,385,66,-96
13:21:24.790,,-180,-95,1040,-560,-1400,-350,381,63,-100
13:21:24.809,,-175,-93,1041,70,-1540,-350,394,67,-93
13:21:24.827,,-171,-90,1047,70,-1260,-280,376,66,-99
13:21:24.846,,-167,-95,1046,-280,-910,-350,388,66,-100
13:21:24.865,,-170,-93,1042,-140,-560,-630,382,63,-108
13:21:24.884,,-172,-92,1035,-210,-420,-630,379,58,-105
13:21:24.903,,-175,-93,1029,-420,-420,-700,388,64,-99
13:21:24.921,,-176,-92,1022,-350,-630,-770,388,64,-99
13:21:24.940,,-176,-93,1025,-490,-770,-840,379,60,-102
13:21:24.959,,-175,-96,1026,-630,-1050,-1050,382,58,-103
13:21:24.978,,-175,-97,1030,-560,-1330,-1190,376,67,-99
13:21:24.997,,-173,-98,1035,-490,-1610,-1260,385,64,-97
13:21:25.015,,-173,-97,1035,-630,-1750,-1190,388,60,-99
13:21:25.034,,-170,-98,1037,-840,-1750,-1190,382,69,-97
13:21:25.053,,-170,-99,1036,-1050,-1680,-1330,378,58,-93
13:21:25.072,,-168,-101,1038,-1190,-1820,-1470,384,64,-100
13:21:25.091,,-169,-100,1039,-1050,-1960,-1540,384,64,-96
13:21:25.109,,-170,-97,1043,-980,-2030,-1400,384,67,-96
13:21:25.128,,-172,-95,1047,-1050,-2030,-1330,382,57,-96
13:21:25.147,,-174,-95,1049,-770,-1820,-1400,378,64,-102
13:21:25.166,,-174,-95,1049,-770,-1820,-1400,381,67,-94
13:21:25.185,,-177,-92,1050,-420,-1470,-1610,387,66,-102
13:21:25.203,,-178,-98,1052,-560,-1190,-1750,382,63,-109
13:21:25.222,,-178,-104,1051,-420,-910,-1610,384,63,-100
13:21:25.241,,-178,-106,1049,-70,-770,-1190,388,67,-94
13:21:25.260,,-179,-109,1046,140,-840,-630,378,64,-91
13:21:25.279,,-178,-109,1042,560,-910,-140,391,61,-93
13:21:25.297,,-176,-105,1040,980,-1050,280,381,69,-103
13:21:25.316,,-174,-103,1040,980,-1050,560,382,70,-102
13:21:25.335,,-171,-101,1039,700,-840,770,388,64,-94
13:21:25.354,,-172,-102,1036,420,-630,910,387,69,-100
13:21:25.373,,-175,-102,1036,350,-700,1050,382,64,-105
13:21:25.391,,-175,-100,1035,420,-980,1190,378,64,-105
13:21:25.410,,-175,-98,1035,770,-1260,1260,387,67,-99
13:21:25.429,,-174,-96,1033,840,-1400,1260,391,58,-102
13:21:25.448,,-173,-97,1032,420,-1400,1330,381,64,-106
13:21:25.467,,-174,-98,1031,280,-1330,1400,379,60,-108
13:21:25.485,,-175,-98,1028,-140,-1540,1540,382,64,-106
13:21:25.504,,-173,-99,1028,-280,-1890,1540,382,61,-103
13:21:25.523,,-169,-96,1032,-210,-2310,1540,382,58,-99
13:21:25.542,,-169,-95,1031,-420,-2520,1610,385,60,-93
13:21:25.561,,-169,-94,1037,-350,-2660,1680,388,66,-105
13:21:25.579,,-167,-90,1044,-140,-2590,1750,381,69,-93
13:21:25.598,,-163,-91,1045,-280,-2310,1540,385,63,-100
13:21:25.617,,-161,-92,1047,-420,-1890,1540,385,66,-103
13:21:25.636,,-159,-89,1047,-420,-1330,1470,382,66,-100
13:21:25.655,,-160,-86,1045,-490,-840,1400,382,69,-102
13:21:25.673,,-160,-88,1046,-770,-630,1260,372,64,-100
13:21:25.692,,-164,-84,1041,-420,-490,1050,381,61,-97
13:21:25.711,,-165,-83,1039,-280,-630,840,387,61,-93
13:21:25.730,,-165,-87,1039,-140,-910,700,382,66,-100
13:21:25.748,,-165,-87,1037,210,-1190,350,382,70,-103
13:21:25.767,,-165,-86,1039,350,-1470,70,375,63,-96
13:21:25.786,,-165,-91,1042,70,-1540,-70,379,70,-97
13:21:25.805,,-163,-94,1039,70,-1610,-210,384,70,-103
13:21:25.824,,-162,-91,1043,280,-1260,-140,379,63,-96
13:21:25.842,,-162,-93,1045,-420,-700,140,384,67,-105
13:21:25.861,,-166,-93,1040,-560,-420,280,384,69,-100
13:21:25.880,,-169,-86,1037,-210,-280,210,382,66,-106
13:21:25.899,,-171,-86,1035,-420,-490,70,381,63,-102
13:21:25.918,,-168,-90,1038,-280,-840,-70,384,64,-105
13:21:25.936,,-164,-89,1038,210,-1050,-350,376,66,-105
13:21:25.955,,-161,-91,1040,140,-1050,-420,376,66,-105
13:21:25.974,,-159,-97,1043,-210,-770,-420,385,69,-106
13:21:25.993,,-161,-96,1043,-210,-490,-210,385,69,-102
13:21:26.012,,-161,-91,1044,-280,-420,-70,388,58,-102
13:21:26.030,,-164,-89,1039,-420,-350,-140,378,66,-102
13:21:26.049,,-166,-88,1040,-70,-350,-350,385,72,-102
13:21:26.068,,-168,-87,1042,0,-420,-560,379,64,-102
13:21:26.087,,-167,-88,1043,-70,-490,-560,385,61,-96
13:21:26.106,,-170,-88,1042,-70,-420,-490,382,72,-103
13:21:26.124,,-172,-93,1038,-70,-420,-420,388,64,-100
13:21:26.143,,-169,-97,1043,350,-560,-350,382,66,-99
13:21:26.162,,-167,-95,1045,770,-700,-350,376,60,-103
13:21:26.181,,-166,-94,1043,630,-560,-140,379,63,-99
13:21:26.200,,-166,-94,1043,420,-280,70,381,73,-106
13:21:26.218,,-169,-95,1040,560,-140,350,384,61,-103
13:21:26.237,,-169,-94,1037,700,-280,490,378,64,-106
13:21:26.256,,-168,-88,1038,840,-280,700,379,70,-106
13:21:26.275,,-170,-89,1039,490,-210,700,376,69,-105
13:21:26.294,,-170,-92,1035,420,-420,560,382,69,-102
13:21:26.312,,-167,-86,1033,840,-560,490,375,70,-96
13:21:26.331,,-165,-84,1032,350,-490,490,376,63,-103
13:21:26.350,,-164,-87,1032,-280,-280,560,375,75,-99
13:21:26.369,,-167,-84,1034,-280,-280,560,385,66,-94
13:21:26.388,,-170,-83,1030,-210,-560,420,379,72,-111
13:21:26.406,,-169,-85,1032,-140,-980,210,385,64,-100
13:21:26.425,,-167,-87,1034,-70,-1400,70,388,64,-97
13:21:26.444,,-167,-86,1037,-140,-1540,70,387,72,-108
13:21:26.463,,-167,-86,1041,-490,-1540,210,382,69,-97
13:21:26.482,,-169,-86,1044,-630,-1400,350,384,64,-97
13:21:26.500,,-169,-85,1046,-490,-1260,350,382,61,-97
13:21:26.519,,-170,-84,1042,-490,-1120,420,384,63,-96
13:21:26.538,,-170,-84,1045,-420,-980,490,378,70,-102
13:21:26.557,,-165,-83,1044,-420,-840,560,384,69,-103
13:21:26.576,,-164,-83,1043,-490,-630,490,381,73,-103
13:21:26.594,,-161,-82,1044,-350,-420,280,381,72,-102
13:21:26.613,,-162,-81,1040,-420,-210,70,385,60,-108
13:21:26.632,,-162,-82,1038,-630,-210,-140,382,67,-106
13:21:26.651,,-161,-81,1035,-630,-420,-280,385,64,-100
13:21:26.670,,-162,-80,1032,-490,-770,-490,381,58,-106
13:21:26.688,,-162,-79,1035,-490,-980,-770,379,69,-103
13:21:26.707,,-161,-82,1036,-630,-1050,-1050,379,64,-105
13:21:26.726,,-161,-83,1036,-910,-1050,-1190,381,75,-100
13:21:26.745,,-166,-85,1034,-1190,-1050,-1260,388,67,-103
13:21:26.764,,-167,-88,1034,-1190,-1400,-1330,382,64,-100
13:21:26.782,,-166,-88,1038,-770,-1680,-1470,379,72,-103
13:21:26.801,,-165,-90,1042,-770,-1890,-1470,378,70,-100
13:21:26.820,,-163,-91,1044,-1050,-1680,-1330,388,69,-105
13:21:26.839,,-164,-94,1049,-1120,-1190,-1050,372,72,-102
13:21:26.857,,-166,-94,1046,-1190,-840,-910,381,67,-100
13:21:26.876,,-168,-94,1043,-1190,-630,-700,388,67,-91
13:21:26.895,,-168,-92,1043,-910,-770,-490,381,69,-106
13:21:26.914,,-167,-88,1044,-490,-910,-350,379,69,-99
13:21:26.933,,-164,-88,1045,-490,-910,-490,391,76,-97
13:21:26.951,,-164,-88,1045,-490,-840,-560,375,67,-105
13:21:26.970,,-164,-88,1044,-490,-840,-560,375,67,-105
13:21:26.989,,-165,-89,1042,-490,-700,-560,381,75,-102
13:21:27.008,,-165,-90,1041,-490,-630,-420,385,70,-99
13:21:27.027,,-163,-86,1040,-490,-560,-350,384,63,-100
13:21:27.045,,-167,-88,1037,-560,-490,-420,382,67,-96
13:21:27.064,,-167,-90,1038,-350,-700,-630,381,72,-97
13:21:27.083,,-166,-90,1036,-350,-910,-700,384,69,-102
13:21:27.102,,-164,-92,1038,-630,-1050,-700,382,72,-96
13:21:27.121,,-165,-93,1040,-770,-980,-490,385,70,-96
13:21:27.139,,-166,-90,1040,-770,-840,-350,384,60,-94
13:21:27.158,,-170,-91,1041,-770,-840,-280,384,69,-99
13:21:27.177,,-171,-90,1042,-560,-980,-280,391,73,-109
13:21:27.196,,-169,-90,1043,-420,-1120,-210,381,72,-102
13:21:27.215,,-166,-92,1045,-420,-1050,-140,390,70,-105
13:21:27.233,,-165,-93,1046,-350,-770,-140,375,64,-102
13:21:27.252,,-163,-95,1045,-350,-350,0,373,64,-99
13:21:27.271,,-163,-96,1045,-490,-70,140,376,69,-97
13:21:27.290,,-163,-97,1044,-420,70,420,382,69,-100
13:21:27.308,,-162,-90,1040,-140,0,630,384,64,-96
13:21:27.327,,-162,-85,1039,-280,210,770,382,58,-105
13:21:27.333,>gest6_right,,,,,,,,,
13:21:27.346,,-163,-85,1038,-420,280,700,384,67,-102
13:21:27.365,,-163,-84,1036,-210,210,490,378,70,-102
13:21:27.384,,-163,-85,1038,-140,140,350,382,73,-102
13:21:27.402,,-162,-88,1037,-490,0,280,381,72,-102
13:21:27.421,,-163,-90,1035,-490,-140,0,381,69,-99
13:21:27.440,,-165,-89,1036,-210,-490,-140,388,61,-100
13:21:27.459,,-167,-88,1036,-280,-840,-140,382,72,-99
13:21:27.478,,-170,-88,1037,-420,-980,-70,381,64,-99
13:21:27.496,,-171,-90,1039,-490,-980,-70,379,64,-103
13:21:27.554,,-171,-91,1040,-560,-700,0,397,75,-93
13:21:27.554,,-171,-91,1040,-560,-700,0,397,75,-93
13:21:27.554,,-171,-91,1040,-560,-700,0,397,75,-93
13:21:27.572,,-172,-88,1038,-420,-840,70,387,73,-102
13:21:27.590,,-171,-92,1037,-490,-1120,70,378,72,-96
13:21:27.609,,-168,-92,1040,-420,-1190,210,387,70,-100
13:21:27.628,,-167,-92,1038,-490,-1190,420,379,72,-102
13:21:27.647,,-165,-89,1039,-490,-1260,490,382,72,-105
13:21:27.666,,-165,-85,1036,-560,-1260,350,384,67,-99
13:21:27.684,,-166,-85,1036,-770,-1260,140,385,75,-106
13:21:27.703,,-165,-88,1040,-700,-1470,-140,382,67,-99
13:21:27.722,,-162,-88,1043,-560,-1540,-350,384,75,-102
13:21:27.741,,-161,-88,1044,-560,-1470,-350,384,64,-100
13:21:27.760,,-162,-87,1046,-630,-1190,-350,381,63,-105
13:21:27.778,,-165,-86,1046,-560,-1120,-420,387,63,-102
13:21:27.797,,-167,-84,1043,-490,-1190,-420,382,63,-100
13:21:27.816,,-166,-88,1044,-490,-1190,-490,384,63,-103
13:21:27.835,,-164,-94,1048,-140,-1190,-560,387,70,-102
13:21:27.854,,-162,-95,1044,70,-1120,-630,384,73,-99
13:21:27.872,,-161,-95,1044,210,-910,-420,381,63,-103
13:21:27.891,,-161,-94,1043,0,-560,-70,375,66,-102
13:21:27.910,,-164,-91,1039,-140,-280,70,378,67,-106
13:21:27.929,,-164,-89,1038,-140,-350,140,384,64,-102
13:21:27.948,,-165,-88,1037,-140,-560,70,379,70,-102
13:21:27.966,,-164,-86,1035,-140,-700,0,385,67,-96
13:21:27.985,,-164,-84,1037,-140,-840,-140,387,69,-97
13:21:28.004,,-164,-86,1037,-350,-980,-280,387,69,-97
13:21:28.023,,-165,-86,1039,-350,-1050,-280,382,66,-100
13:21:28.042,,-164,-89,1039,-350,-1190,-280,384,79,-105
13:21:28.060,,-162,-92,1043,-350,-1330,-280,375,66,-94
13:21:28.079,,-163,-91,1044,-280,-1260,-210,381,67,-103
13:21:28.098,,-165,-93,1042,-420,-1190,-140,387,72,-96
13:21:28.117,,-165,-96,1042,-350,-1050,70,379,67,-100
13:21:28.135,,-168,-99,1042,-350,-910,280,384,70,-94
13:21:28.154,,-170,-99,1036,-280,-910,700,384,73,-99
13:21:28.173,,-169,-99,1031,-280,-1260,1190,382,72,-97
13:21:28.192,,-167,-106,1030,-420,-1680,1680,379,70,-100
13:21:28.211,,-169,-109,1027,-140,-2030,2380,385,73,-100
13:21:28.229,,-171,-110,1023,-350,-2450,3220,394,73,-94
13:21:28.248,,-169,-115,1025,-630,-2800,4130,378,66,-97
13:21:28.267,,-173,-114,1017,-770,-3080,5250,384,73,-97
13:21:28.286,,-173,-114,1013,-1400,-3430,6370,387,69,-103
13:21:28.305,,-175,-118,1012,-2380,-3710,7630,381,66,-99
13:21:28.323,,-168,-111,1016,-2870,-4410,8750,385,73,-108
13:21:28.342,,-150,-90,1030,-2660,-5250,9940,384,76,-103
13:21:28.361,,-115,-49,1063,-1680,-5950,10500,376,69,-102
13:21:28.380,,-72,4,1095,280,-6300,10500,375,79,-102
13:21:28.399,,-40,79,1090,2310,-8890,8960,369,64,-97
13:21:28.417,,18,147,1132,4970,-14840,4830,381,70,-103
13:21:28.436,,67,269,1183,10710,-19740,-2590,388,73,-102
13:21:28.455,,107,354,1211,13860,-21770,-15120,382,72,-105
13:21:28.474,,141,410,1193,15190,-20580,-32830,382,70,-105
13:21:28.493,,172,498,1142,15400,-16310,-56840,379,63,-109
13:21:28.511,,212,584,1119,14770,-10640,-82670,375,60,-114
13:21:28.530,,256,592,1100,10850,-4410,-108990,375,51,-111
13:21:28.549,,294,560,1073,5600,70,-136010,379,40,-112
13:21:28.568,,313,486,1028,2310,1960,-162330,385,21,-117
13:21:28.587,,343,391,1009,1400,840,-186410,370,7,-120
13:21:28.605,,388,247,1002,910,-2170,-206640,378,-15,-124
13:21:28.624,,401,136,972,-4550,-5110,-220220,363,-31,-117
13:21:28.643,,427,-87,1003,-16940,-7420,-225540,364,-48,-111
13:21:28.662,,375,-243,1011,-28140,-9520,-223790,358,-66,-114
13:21:28.681,,322,-401,1034,-29190,-11760,-216510,349,-82,-114
13:21:28.699,,290,-484,1010,-25550,-14630,-211330,345,-106,-114
13:21:28.718,,264,-488,1014,-17640,-13440,-205730,339,-114,-108
13:21:28.737,,256,-566,1043,-14490,-7490,-196700,322,-132,-106
13:21:28.756,,256,-566,1043,-14490,-7490,-196700,319,-147,-108
13:21:28.775,,230,-635,1044,-24500,910,-185710,309,-147,-108
13:21:28.793,,180,-741,1029,-43540,11690,-170660,301,-159,-106
13:21:28.812,,108,-828,989,-66290,23380,-152040,288,-174,-97
13:21:28.831,,40,-936,940,-81900,32200,-128380,289,-178,-94
13:21:28.850,,-36,-1049,918,-83160,38360,-101990,282,-172,-94
13:21:28.869,,-124,-1111,887,-69020,39130,-76160,279,-181,-93
13:21:28.887,,-204,-1074,850,-44660,36330,-51380,283,-180,-97
13:21:28.906,,-279,-1025,836,-24640,32410,-25970,276,-178,-106
13:21:28.925,,-321,-1012,842,-17430,25550,-1470,282,-172,-97
13:21:28.944,,-326,-1016,837,-12320,17640,20720,283,-169,-102
13:21:28.963,,-319,-987,846,-3360,12600,40740,289,-166,-102
13:21:28.981,,-291,-969,858,4410,8960,59430,283,-168,-99
13:21:29.000,,-233,-965,872,7700,5390,77000,295,-166,-105
13:21:29.019,,-179,-970,869,10360,3500,95060,307,-153,-103
13:21:29.038,,-148,-965,863,14840,2730,113680,298,-144,-105
13:21:29.057,,-126,-939,855,15050,1330,131600,298,-144,-105
13:21:29.075,,-87,-937,859,12880,-910,150010,327,-130,-103
13:21:29.094,,-47,-859,877,14840,-4200,168560,339,-118,-108
13:21:29.113,,-17,-751,880,17850,-6930,186550,340,-109,-105
13:21:29.132,,39,-630,879,18620,-9100,200970,348,-94,-114
13:21:29.151,,96,-522,889,19040,-11200,213010,354,-79,-112
13:21:29.169,,141,-348,911,20860,-14070,223090,360,-61,-102
13:21:29.188,,167,-159,956,20860,-17360,229110,363,-40,-106
13:21:29.207,,193,67,1011,16380,-20020,227500,376,-27,-108
13:21:29.226,,212,297,1067,8890,-20580,217140,378,-1,-100
13:21:29.245,,219,478,1107,-840,-19320,198660,387,10,-115
13:21:29.263,,241,608,1142,-8610,-17430,174020,387,30,-100
13:21:29.282,,228,614,1136,-13300,-13300,146300,385,36,-102
13:21:29.301,,220,602,1139,-14630,-10360,115850,385,49,-96
13:21:29.320,,215,542,1149,-13090,-9870,86870,385,51,-100
13:21:29.339,,207,464,1160,-11690,-10920,61600,382,66,-97
13:21:29.357,,192,343,1176,-11480,-12950,41090,382,66,-90
13:21:29.376,,169,198,1177,-7420,-15400,24570,384,69,-91
13:21:29.395,,137,116,1152,770,-17010,11270,384,64,-97
13:21:29.414,,81,68,1117,5390,-15960,2030,381,66,-99
13:21:29.433,,16,13,1091,3430,-13720,-3710,394,60,-102
13:21:29.451,,-48,-52,1067,-420,-11480,-7280,381,66,-99
13:21:29.470,,-104,-105,1049,-420,-9940,-8540,382,66,-100
13:21:29.489,,-148,-127,1044,2870,-8960,-8120,384,63,-97
13:21:29.508,,-181,-120,1034,5390,-8260,-6580,378,63,-99
13:21:29.527,,-199,-113,1029,5110,-7560,-4200,381,64,-102
13:21:29.545,,-218,-100,1032,3780,-6370,-1400,382,61,-106
13:21:29.564,,-224,-81,1025,1960,-5040,1120,390,58,-96
13:21:29.583,,-230,-63,1021,210,-3640,3220,382,61,-99
13:21:29.602,,-227,-59,1018,-2240,-2800,4270,381,54,-94
13:21:29.621,,-221,-58,1017,-3360,-2800,4130,385,63,-105
13:21:29.639,,-211,-69,1023,-3290,-3150,3710,382,58,-96
13:21:29.658,,-194,-89,1044,-3290,-4060,3220,382,61,-105
13:21:29.677,,-165,-114,1062,-3150,-5110,2660,385,70,-105
13:21:29.696,,-138,-120,1065,-2100,-5600,2310,385,57,-94
13:21:29.715,,-120,-112,1061,-1540,-4480,2730,388,61,-103
13:21:29.733,,-115,-108,1060,-3150,-1960,3640,388,66,-90
13:21:29.752,,-117,-112,1069,-4760,350,4340,387,69,-96
13:21:29.771,,-122,-111,1064,-4340,1540,3710,381,67,-99
13:21:29.790,,-128,-101,1055,-2870,2100,2940,390,63,-97
13:21:29.808,,-130,-95,1043,-2240,2170,2240,387,60,-88
13:21:29.827,,-134,-98,1035,-2100,2170,1540,378,60,-91
13:21:29.846,,-136,-87,1033,-1750,1960,770,387,66,-90
13:21:29.865,,-146,-95,1028,-2100,1540,140,391,61,-93
13:21:29.884,,-153,-101,1022,-2240,490,-770,391,58,-93
13:21:29.902,,-156,-99,1026,-1400,-420,-1470,393,69,-97
13:21:29.921,,-157,-93,1023,-1050,-1050,-2100,382,67,-96
13:21:29.940,,-159,-96,1022,-1820,-1330,-2730,385,66,-96
13:21:29.959,,-157,-108,1025,-2800,-1610,-3360,390,61,-90
13:21:29.978,,-156,-121,1031,-2800,-2100,-3570,382,61,-96
13:21:29.996,,-159,-127,1040,-2170,-2800,-3080,378,63,-97
13:21:30.015,,-159,-127,1044,-1680,-3500,-2310,388,63,-90
13:21:30.034,,-155,-123,1052,-1260,-3640,-1540,387,60,-99
13:21:30.053,,-151,-119,1058,-980,-3010,-1190,385,54,-91
13:21:30.072,,-148,-113,1060,-1330,-1820,-1120,382,60,-96
13:21:30.090,,-151,-112,1062,-1890,-350,-980,382,60,-96
13:21:30.109,,-155,-111,1057,-2170,700,-630,384,58,-96
13:21:30.128,,-157,-111,1058,-1610,1260,-280,390,61,-99
13:21:30.147,,-163,-106,1049,-910,1260,-350,376,64,-96
13:21:30.166,,-166,-106,1052,-280,840,-280,379,67,-96
13:21:30.184,,-160,-105,1052,210,490,-210,384,55,-100
13:21:30.203,,-157,-100,1053,490,770,-140,384,55,-96
13:21:30.222,,-156,-101,1049,70,1400,-140,382,60,-94
13:21:30.241,,-159,-103,1047,-140,1960,-490,387,64,-97
13:21:30.260,,-162,-105,1036,-70,1960,-980,390,61,-105
13:21:30.278,,-166,-101,1031,280,1750,-1050,385,61,-100
13:21:30.297,,-169,-101,1030,280,1330,-770,384,58,-88
13:21:30.316,,-174,-99,1031,210,770,-770,375,61,-96
13:21:30.335,,-176,-104,1032,420,70,-1260,385,54,-97
13:21:30.354,,-172,-106,1031,910,-770,-1750,387,66,-88
13:21:30.372,,-168,-111,1034,980,-1120,-1680,382,73,-88
13:21:30.391,,-164,-116,1038,560,-1050,-1260,388,69,-93
13:21:30.410,,-165,-118,1039,350,-700,-700,387,69,-85
13:21:30.429,,-168,-115,1038,140,-350,-350,394,69,-93
13:21:30.448,,-165,-114,1036,-70,-280,-140,388,63,-100
13:21:30.466,,-165,-106,1032,-210,-280,-210,378,69,-93
13:21:30.485,,-165,-105,1030,-280,-350,-210,384,60,-85
13:21:30.504,,-164,-104,1034,-490,-490,-210,385,67,-93
13:21:30.523,,-161,-106,1033,-560,-770,-140,390,64,-97
13:21:30.542,,-158,-105,1044,-280,-840,140,382,69,-94
13:21:30.560,,-158,-105,1044,-280,-840,140,378,60,-96
13:21:30.579,,-156,-104,1048,-210,-770,280,387,64,-96
13:21:30.598,,-154,-101,1048,140,-630,-70,388,66,-88
13:21:30.617,,-156,-97,1046,280,-210,-560,375,67,-93
13:21:30.636,,-160,-100,1041,-280,70,-980,390,72,-102
13:21:30.654,,-164,-110,1041,-560,70,-1050,387,61,-94
13:21:30.673,,-168,-113,1037,-70,-210,-1050,384,66,-97
13:21:30.692,,-166,-113,1033,630,-770,-980,387,61,-99
13:21:30.711,,-164,-110,1035,840,-910,-630,373,61,-96
13:21:30.730,,-165,-106,1033,490,-840,-350,381,70,-94
13:21:30.748,,-169,-104,1034,140,-910,-210,385,64,-96
13:21:30.767,,-167,-103,1037,-140,-1050,-210,382,61,-97
13:21:30.786,,-164,-104,1037,-210,-1190,-70,375,66,-94
13:21:30.805,,-160,-102,1041,-280,-1050,140,379,66,-99
13:21:30.824,,-160,-100,1043,-490,-770,280,388,61,-96
13:21:30.842,,-160,-94,1043,-770,-630,140,385,67,-93
13:21:30.861,,-163,-93,1046,-910,-700,-70,387,69,-94
13:21:30.880,,-163,-94,1048,-490,-980,-560,391,58,-91
13:21:30.899,,-164,-96,1046,140,-1190,-910,385,58,-99
13:21:30.918,,-162,-101,1044,420,-1260,-980,378,69,-97
13:21:30.936,,-162,-104,1046,350,-1120,-770,388,67,-96
13:21:30.955,,-165,-109,1038,140,-1050,-630,387,58,-91
13:21:30.974,,-168,-107,1036,420,-1050,-280,391,63,-94
13:21:30.993,,-168,-106,1031,140,-1050,140,381,70,-90
13:21:31.011,,-166,-109,1028,-70,-1330,560,387,64,-94
13:21:31.030,,-164,-107,1034,70,-1330,1120,378,69,-90
13:21:31.049,,-158,-108,1033,-210,-1260,1400,385,70,-93
13:21:31.068,,-153,-107,1037,-420,-910,1540,379,67,-96
13:21:31.087,,-151,-105,1036,-770,-630,1540,391,66,-93
13:21:31.105,,-150,-104,1037,-700,-420,1610,385,69,-96
13:21:31.124,,-153,-98,1036,-770,-210,1470,385,69,-96
13:21:31.143,,-154,-98,1036,-1120,-140,1260,384,66,-94
13:21:31.162,,-155,-96,1039,-1190,-140,910,384,67,-97
13:21:31.181,,-157,-93,1033,-1470,-350,350,387,64,-96
13:21:31.199,,-159,-97,1033,-1680,-630,-280,385,60,-91
13:21:31.218,,-159,-101,1035,-1330,-1120,-770,376,66,-97
13:21:31.237,,-159,-107,1041,-1190,-1330,-910,391,61,-99
13:21:31.256,,-159,-113,1042,-1050,-1400,-770,378,61,-105
13:21:31.275,,-158,-114,1046,-490,-1190,-490,387,66,-93
13:21:31.293,,-158,-111,1046,-350,-840,-280,382,63,-90
13:21:31.312,,-160,-110,1045,-700,-490,0,390,67,-93
13:21:31.331,,-162,-109,1044,-700,-280,280,387,63,-99
13:21:31.350,,-163,-102,1040,-560,-70,350,385,70,-96
13:21:31.369,,-165,-102,1038,-630,0,280,384,61,-97
13:21:31.387,,-167,-102,1039,-490,-210,0,388,66,-97
13:21:31.406,,-168,-98,1032,-210,-560,-210,384,61,-96
13:21:31.425,,-166,-94,1031,-280,-770,-280,382,67,-97
13:21:31.444,,-167,-99,1032,-840,-840,-210,388,64,-94
13:21:31.463,,-171,-100,1033,-840,-1050,-420,387,63,-99
13:21:31.481,,-170,-102,1037,-490,-1400,-770,381,66,-97
13:21:31.500,,-166,-105,1039,-490,-1610,-910,385,63,-96
13:21:31.519,,-160,-107,1041,-840,-1260,-980,387,66,-94
13:21:31.538,,-159,-109,1041,-1260,-630,-770,390,67,-99
13:21:31.557,,-161,-114,1039,-1540,-280,-560,384,66,-100
13:21:31.575,,-165,-109,1036,-1050,-350,-280,385,69,-99
13:21:31.594,,-167,-107,1036,-910,-700,280,384,66,-97
13:21:31.613,,-166,-102,1039,-770,-1050,560,385,63,-96
13:21:31.632,,-163,-97,1041,-630,-1260,280,385,67,-90
13:21:31.651,,-162,-100,1042,-490,-1050,-140,382,67,-96
13:21:31.669,,-160,-101,1039,-770,-980,-560,385,58,-93
13:21:31.688,,-161,-108,1044,-1050,-910,-630,379,69,-90
13:21:31.707,,-163,-109,1039,-1050,-1050,-630,385,64,-99
13:21:31.726,,-165,-110,1039,-630,-1260,-420,387,70,-88
13:21:31.745,,-160,-109,1044,-210,-1330,-350,382,63,-93
13:21:31.763,,-156,-110,1038,-210,-1260,-350,381,72,-100
13:21:31.782,,-154,-108,1041,-210,-910,-140,384,70,-91
13:21:31.801,,-158,-108,1037,-560,-490,-140,379,67,-99
13:21:31.820,,-160,-106,1033,-630,-350,-420,388,63,-97
13:21:31.839,,-158,-105,1034,-630,-490,-770,379,61,-100
13:21:31.857,,-159,-108,1034,-980,-700,-840,376,66,-94
13:21:31.876,,-159,-110,1038,-840,-840,-700,385,66,-91
13:21:31.895,,-160,-108,1040,-560,-980,-560,381,66,-88
13:21:31.914,,-160,-108,1040,-420,-910,-560,385,72,-100
13:21:31.933,,-157,-109,1039,-350,-840,-700,391,63,-100
13:21:31.951,,-158,-107,1036,-560,-490,-700,390,61,-97
13:21:31.970,,-160,-111,1034,-1050,-350,-490,379,60,-96
13:21:31.989,,-159,-114,1035,-1050,-490,-280,381,64,-91
13:21:32.008,,-160,-108,1033,-630,-770,-140,385,69,-94
13:21:32.027,,-161,-106,1032,-910,-980,0,385,66,-97
13:21:32.045,,-162,-105,1032,-1120,-1190,140,390,67,-91
13:21:32.064,,-162,-103,1036,-1120,-1470,-70,385,69,-97
13:21:32.083,,-160,-104,1036,-1260,-1680,-420,378,63,-93
13:21:32.102,,-159,-106,1039,-1330,-1610,-560,384,66,-88
13:21:32.121,,-159,-107,1044,-1540,-1470,-560,388,69,-91
13:21:32.139,,-160,-112,1045,-1610,-1260,-490,387,69,-94
13:21:32.158,,-159,-110,1048,-1470,-1190,-420,387,69,-94
13:21:32.177,,-161,-112,1047,-1470,-1050,-350,385,61,-94
13:21:32.196,,-160,-111,1047,-1050,-910,-280,390,69,-87
13:21:32.215,,-159,-109,1048,-840,-770,-350,397,64,-97
13:21:32.233,,-158,-111,1046,-840,-560,-420,382,60,-90
13:21:32.252,,-157,-111,1045,-700,-420,-560,381,69,-87
13:21:32.271,,-157,-112,1045,-770,-210,-560,391,60,-94
13:21:32.290,,-157,-114,1041,-840,-210,-560,379,66,-97
13:21:32.309,,-156,-114,1042,-490,-140,-560,391,66,-94
13:21:32.327,,-155,-111,1037,-140,-70,-630,393,63,-94
13:21:32.346,,-155,-111,1037,-210,0,-630,388,60,-94
13:21:32.365,,-158,-109,1032,-210,0,-630,384,63,-88
13:21:32.384,,-162,-110,1030,-420,-140,-700,382,67,-99
13:21:32.403,,-163,-111,1030,-700,-630,-840,385,67,-94
13:21:32.421,,-163,-111,1031,-700,-1190,-840,381,64,-94
13:21:32.440,,-161,-111,1033,-630,-1470,-980,382,66,-90
13:21:32.459,,-159,-115,1037,-560,-1540,-1050,384,60,-93
13:21:32.478,,-158,-114,1041,-420,-1400,-910,385,64,-97
13:21:32.497,,-158,-117,1041,-490,-1190,-560,382,55,-90
13:21:32.515,,-159,-118,1045,-490,-840,-350,381,64,-88
13:21:32.534,,-159,-118,1042,-630,-630,-350,385,63,-90
13:21:32.553,,-157,-118,1046,-840,-350,-210,378,58,-99
13:21:32.572,,-156,-118,1044,-1190,-70,70,382,64,-88
13:21:32.591,,-156,-116,1046,-1190,140,280,385,63,-103
13:21:32.609,,-161,-112,1042,-770,140,350,385,61,-90
13:21:32.628,,-163,-109,1036,-420,-140,280,388,67,-88
13:21:32.647,,-163,-110,1033,70,-420,140,385,63,-87
13:21:32.666,,-161,-107,1032,280,-630,70,382,72,-96
13:21:32.685,,-158,-109,1032,-210,-700,0,379,63,-96
13:21:32.703,,-156,-111,1038,-770,-560,-70,385,70,-91
13:21:32.722,,-159,-113,1040,-1050,-420,-280,387,67,-87
13:21:32.741,,-162,-114,1039,-1050,-490,-490,387,60,-99
13:21:32.760,,-164,-113,1039,-770,-770,-420,385,63,-96
13:21:32.779,,-161,-112,1037,-350,-1050,-210,387,64,-93
13:21:32.797,,-157,-109,1042,-70,-910,0,375,69,-96
13:21:32.816,,-157,-112,1042,-350,-490,-140,387,63,-91
13:21:32.835,,-160,-112,1040,-490,-210,-350,397,64,-97
13:21:32.854,,-160,-113,1041,-490,-140,-560,376,67,-105
13:21:32.873,,-160,-113,1041,-700,-280,-560,387,63,-91
13:21:32.891,,-161,-112,1040,-770,-490,-630,385,66,-97
13:21:32.910,,-162,-110,1042,-630,-770,-700,385,63,-94
13:21:32.929,,-162,-109,1037,-560,-1120,-980,384,66,-100
13:21:32.948,,-157,-111,1036,-420,-1330,-980,391,58,-99
13:21:32.967,,-156,-113,1037,-210,-1260,-910,390,72,-94
13:21:32.985,,-159,-114,1039,-140,-840,-630,384,63,-93
13:21:33.004,,-163,-118,1041,-350,-560,-560,382,58,-94
13:21:33.023,,-161,-118,1038,-280,-560,-490,381,64,-90
13:21:33.042,,-161,-115,1035,-350,-490,-420,385,61,-94
13:21:33.061,,-159,-116,1031,-840,-350,-280,382,67,-90
13:21:33.079,,-158,-119,1039,-1050,-210,-70,390,63,-94
13:21:33.098,,-161,-118,1040,-840,-420,0,387,66,-93
13:21:33.117,,-161,-113,1038,-560,-560,-140,382,64,-87
13:21:33.136,,-159,-115,1037,-560,-630,-210,385,72,-94
13:21:33.154,,-157,-114,1039,-700,-490,-210,388,60,-94
13:21:33.173,,-154,-116,1037,-560,-280,-140,388,64,-90
13:21:33.192,,-150,-114,1036,-560,-210,0,388,64,-90
13:21:33.211,<gest6_right,,,,,,,,,
13:21:33.211,,-150,-112,1036,-560,-140,140,384,67,-88
13:21:33.230,,-154,-111,1033,-770,-280,0,381,66,-96
13:21:33.248,,-157,-110,1031,-910,-630,-420,376,66,-94
13:21:33.267,,-163,-107,1029,-910,-1190,-840,385,63,-88
13:21:33.286,,-163,-112,1031,-910,-1750,-980,393,66,-90
13:21:33.305,,-162,-112,1036,-770,-2100,-1120,391,70,-94
13:21:33.324,,-162,-114,1041,-770,-2100,-1190,387,67,-90
13:21:33.342,,-162,-118,1044,-770,-1960,-1260,388,66,-91
13:21:33.361,,-163,-118,1049,-560,-1610,-1120,391,66,-96
13:21:33.380,,-165,-118,1050,-560,-1190,-980,387,69,-91
13:21:33.399,,-165,-118,1050,-770,-840,-840,388,70,-91
13:21:33.418,,-165,-121,1048,-840,-490,-630,379,64,-96
13:21:33.436,,-166,-123,1047,-700,-420,-420,387,67,-97
13:21:33.455,,-166,-121,1045,-210,-560,0,384,64,-94
13:21:33.474,,-163,-117,1046,140,-560,560,381,61,-91
13:21:33.493,,-157,-112,1047,210,-350,700,384,66,-94
13:21:33.512,,-156,-109,1039,70,0,420,376,70,-85
13:21:33.530,,-156,-113,1033,-280,350,70,382,61,-87
13:21:33.549,,-156,-120,1036,-280,350,-140,384,66,-90
13:21:33.568,,-157,-121,1034,70,0,-280,379,57,-91
13:21:33.587,,-158,-116,1034,490,-350,-70,382,64,-90
13:21:33.606,,-158,-114,1037,280,-560,70,379,63,-97
13:21:33.624,,-160,-111,1036,0,-420,-140,379,67,-99
13:21:33.643,,-159,-110,1034,-210,-280,-350,388,64,-91
13:21:33.662,,-158,-113,1034,-630,-70,-490,390,64,-94
13:21:33.681,,-159,-118,1028,-1050,-70,-700,384,66,-93
13:21:33.700,,-162,-119,1028,-910,-420,-700,387,64,-84
13:21:33.718,,-165,-120,1030,-840,-1050,-560,378,66,-93
13:21:33.737,,-169,-120,1031,-560,-1750,-490,381,63,-90
13:21:33.756,,-164,-116,1036,-70,-2240,-420,385,67,-100
13:21:33.775,,-159,-115,1040,-140,-2170,-210,382,64,-93
13:21:33.794,,-154,-119,1047,-700,-1610,0,381,63,-94
13:21:33.812,,-154,-116,1047,-700,-1050,0,387,67,-90
13:21:33.831,,-155,-114,1047,-630,-700,70,388,63,-96
13:21:33.850,,-157,-114,1045,-770,-630,0,382,69,-90
13:21:33.869,,-157,-111,1044,-490,-560,70,390,67,-91
13:21:33.888,,-157,-109,1044,-210,-560,140,381,66,-94
13:21:33.906,,-159,-112,1046,-210,-420,210,387,61,-100
13:21:33.925,,-160,-111,1043,0,-420,-140,393,64,-87
13:21:33.944,,-158,-111,1039,210,-560,-420,381,61,-84
13:21:33.963,,-159,-114,1039,280,-560,-630,382,67,-93
13:21:33.982,,-159,-115,1038,350,-630,-630,382,64,-84
13:21:34.000,,-160,-114,1040,280,-490,-700,385,67,-87
13:21:34.019,,-160,-117,1041,0,-420,-560,384,66,-97
13:21:34.038,,-161,-117,1042,210,-420,-490,385,52,-93
13:21:34.057,,-162,-113,1040,490,-420,-420,390,70,-100
13:21:34.076,,-163,-111,1036,420,-490,-490,390,58,-96
13:21:34.094,,-163,-111,1035,280,-490,-490,376,60,-90
13:21:34.113,,-160,-112,1036,70,-350,-490,388,66,-96
13:21:34.132,,-159,-116,1035,-70,-280,-560,384,67,-96
13:21:34.151,,-159,-116,1035,-70,-280,-560,385,61,-91
13:21:34.170,,-159,-114,1035,-140,-280,-560,379,60,-88
13:21:34.188,,-158,-116,1033,-350,-350,-350,387,60,-96
