Sensors' Acquisition [Hz]: Acc@52.0 Gyro@52.0 Mag@52.0 
hh:mm:ss.ms, Annotation , AccX [mg], AccY, AccZ, GyroX [mdps], GyroY, GyroZ, MagX [mgauss], MagY, MagZ
21:00:14.404,,-203,-132,1040,-210,-2520,700,321,-96,-373
21:00:14.423,,-199,-136,1043,-140,-2310,350,327,-94,-366
21:00:14.441,,-198,-136,1042,490,-2100,70,318,-88,-369
21:00:14.460,,-197,-134,1040,840,-1610,0,315,-90,-369
21:00:14.479,,-199,-135,1037,350,-1050,-140,327,-87,-363
21:00:14.498,,-200,-138,1035,-70,-770,-350,324,-88,-360
21:00:14.516,,-203,-141,1030,70,-700,-420,325,-90,-369
21:00:14.535,,-202,-142,1031,560,-1190,-420,319,-88,-372
21:00:14.554,,-203,-146,1032,700,-1330,-280,316,-85,-375
21:00:14.573,,-199,-141,1033,980,-1610,0,316,-93,-364
21:00:14.592,,-198,-139,1033,910,-1400,350,324,-90,-363
21:00:14.610,,-197,-136,1030,350,-1190,280,319,-88,-375
21:00:14.629,,-198,-142,1027,-140,-1120,210,319,-93,-370
21:00:14.648,,-200,-145,1026,-140,-1260,140,318,-91,-376
21:00:14.667,,-198,-147,1026,140,-1470,280,328,-84,-370
21:00:14.686,,-196,-145,1028,210,-1540,490,321,-88,-378
21:00:14.704,,-194,-144,1028,-350,-1400,700,324,-96,-360
21:00:14.723,,-193,-144,1024,-910,-1260,840,322,-87,-369
21:00:14.742,,-197,-141,1024,-1050,-980,910,322,-90,-364
21:00:14.761,,-197,-141,1024,-1190,-1260,910,322,-96,-369
21:00:14.779,,-198,-140,1025,-980,-1540,840,318,-87,-370
21:00:14.798,,-194,-136,1027,-770,-1820,770,328,-91,-375
21:00:14.817,,-193,-134,1028,-1050,-1890,630,319,-88,-373
21:00:14.836,,-193,-135,1031,-1330,-1890,490,327,-90,-372
21:00:14.855,,-195,-135,1032,-1610,-1750,280,325,-93,-373
21:00:14.873,,-195,-135,1032,-1470,-1890,70,313,-81,-364
21:00:14.892,,-196,-136,1031,-1470,-1890,70,319,-94,-376
21:00:14.911,,-196,-135,1037,-1120,-2100,-140,322,-94,-367
21:00:14.930,,-194,-136,1036,-840,-2310,-280,321,-88,-373
21:00:14.949,,-193,-135,1045,-560,-2380,-350,318,-90,-375
21:00:14.967,,-194,-136,1046,-490,-2310,-350,318,-90,-375
21:00:14.986,,-195,-134,1047,-350,-2100,-280,324,-97,-361
21:00:15.005,,-197,-133,1042,-140,-1750,-350,322,-96,-370
21:00:15.024,,-196,-134,1042,560,-1680,-560,322,-90,-369
21:00:15.042,,-197,-132,1044,840,-1330,-910,322,-88,-358
21:00:15.061,,-196,-138,1039,490,-1050,-1120,319,-90,-364
21:00:15.080,,-194,-141,1037,490,-840,-1190,322,-93,-363
21:00:15.099,,-193,-141,1033,910,-770,-980,318,-88,-369
21:00:15.118,,-191,-139,1033,840,-700,-840,322,-93,-364
21:00:15.136,,-195,-140,1029,560,-630,-700,319,-85,-357
21:00:15.155,,-196,-140,1026,420,-840,-700,324,-85,-364
21:00:15.174,,-198,-142,1028,420,-1050,-560,319,-94,-372
21:00:15.193,,-195,-139,1028,490,-1260,-490,325,-93,-373
21:00:15.212,,-194,-140,1025,420,-1260,-420,324,-78,-373
21:00:15.230,,-193,-138,1029,210,-1330,-560,319,-87,-369
21:00:15.249,,-194,-146,1026,-280,-1400,-700,324,-87,-363
21:00:15.268,,-192,-146,1028,-70,-1680,-560,324,-91,-366
21:00:15.287,,-193,-145,1032,-140,-1890,-210,316,-93,-372
21:00:15.305,,-189,-146,1035,-350,-2100,350,322,-99,-370
21:00:15.324,,-190,-141,1042,-210,-1890,700,316,-93,-370
21:00:15.343,,-190,-138,1040,-140,-1610,700,322,-91,-369
21:00:15.362,,-188,-133,1036,-140,-1330,350,319,-88,-369
21:00:15.381,,-186,-132,1035,-420,-1050,-70,315,-91,-370
21:00:15.399,,-186,-138,1035,-840,-840,-280,322,-96,-363
21:00:15.418,,-188,-135,1035,-630,-770,-210,322,-84,-369
21:00:15.437,,-189,-134,1034,-210,-770,-280,319,-90,-369
21:00:15.456,,-188,-131,1033,70,-1050,-420,331,-94,-385
21:00:15.475,,-190,-132,1033,70,-1190,-700,324,-91,-367
21:00:15.493,,-189,-133,1035,350,-1470,-910,319,-88,-378
21:00:15.512,,-188,-136,1036,280,-1540,-1050,318,-84,-367
21:00:15.531,,-188,-139,1039,140,-1470,-1050,324,-94,-366
21:00:15.550,,-190,-140,1038,210,-1470,-910,319,-94,-364
21:00:15.568,,-191,-134,1036,420,-1470,-700,319,-91,-372
21:00:15.587,,-193,-132,1034,420,-1470,-560,322,-96,-370
21:00:15.606,,-191,-136,1031,210,-1400,-560,321,-90,-367
21:00:15.625,,-193,-136,1032,210,-1260,-630,322,-100,-364
21:00:15.644,,-192,-140,1031,350,-1400,-700,322,-93,-372
21:00:15.662,,-188,-140,1031,630,-1610,-700,319,-94,-366
21:00:15.681,,-189,-138,1035,350,-1330,-490,319,-91,-370
21:00:15.700,,-188,-141,1032,-280,-1120,-280,324,-99,-376
21:00:15.719,,-189,-139,1031,-420,-1050,-70,318,-99,-378
21:00:15.738,,-191,-137,1030,-210,-1190,-70,325,-102,-376
21:00:15.756,,-190,-139,1029,-210,-1610,-140,319,-96,-372
21:00:15.775,,-188,-138,1027,-70,-1890,-210,319,-94,-373
21:00:15.794,,-187,-138,1027,-140,-2170,140,321,-93,-367
21:00:15.813,,-186,-138,1026,-560,-2310,560,321,-88,-372
21:00:15.819,>gest5_cross_left,,,,,,,,,
21:00:15.831,,-185,-140,1024,-980,-2520,700,327,-94,-366
21:00:15.850,,-184,-143,1021,-1260,-2940,630,319,-94,-372
21:00:15.869,,-189,-135,1018,-1400,-3360,700,315,-93,-373
21:00:15.888,,-188,-145,1024,-2100,-4130,630,324,-97,-366
21:00:15.907,,-180,-146,1026,-1470,-4900,560,321,-96,-375
21:00:15.925,,-177,-138,1032,-770,-5110,840,324,-88,-372
21:00:15.944,,-173,-138,1035,-1610,-4830,910,322,-99,-378
21:00:15.963,,-172,-144,1037,-2450,-4270,1050,322,-99,-378
21:00:15.982,,-173,-137,1039,-2450,-3780,980,321,-91,-358
21:00:16.001,,-173,-133,1034,-2730,-3500,700,327,-96,-370
21:00:16.019,,-173,-134,1030,-3290,-3150,420,328,-97,-366
21:00:16.093,,-175,-134,1028,-2870,-5600,-490,336,-81,-366
21:00:16.094,,-175,-134,1028,-2870,-5600,-490,336,-81,-366
21:00:16.094,,-175,-134,1028,-2870,-5600,-490,336,-81,-366
21:00:16.095,,-175,-134,1028,-2870,-5600,-490,336,-81,-366
21:00:16.113,,-176,-134,1029,-3290,-6510,-700,324,-93,-361
21:00:16.132,,-180,-138,1038,-3570,-7560,-840,315,-90,-363
21:00:16.151,,-183,-143,1049,-3570,-8820,-910,327,-96,-355
21:00:16.170,,-190,-153,1067,-3080,-10290,-700,327,-106,-355
21:00:16.188,,-207,-171,1098,-1050,-12250,280,333,-102,-357
21:00:16.207,,-240,-178,1154,2590,-14770,2520,328,-108,-357
21:00:16.226,,-274,-188,1245,7560,-18410,6790,330,-111,-355
21:00:16.245,,-308,-167,1389,16170,-21630,13230,328,-103,-363
21:00:16.264,,-302,-121,1554,27790,-23030,21140,333,-103,-358
21:00:16.282,,-268,-75,1679,36890,-19600,27930,325,-111,-349
21:00:16.301,,-214,-33,1768,40250,-10500,31990,316,-108,-358
21:00:16.320,,-163,-44,1819,37800,4620,33180,310,-106,-358
21:00:16.339,,-124,-113,1774,34230,23030,32690,315,-105,-360
21:00:16.357,,-97,-181,1677,35630,41720,31920,303,-99,-372
21:00:16.376,,-100,-196,1633,45220,60130,31710,312,-87,-381
21:00:16.395,,-113,-165,1634,58870,75530,33320,298,-64,-381
21:00:16.414,,-92,-119,1581,69580,87500,34020,291,-67,-385
21:00:16.433,,-101,-59,1529,77280,101080,32900,286,-48,-400
21:00:16.451,,-116,-18,1480,85120,115220,29960,268,-36,-409
21:00:16.470,,-94,-22,1324,90370,128730,24920,259,-9,-424
21:00:16.489,,-75,-32,1127,92260,142310,18970,241,10,-420
21:00:16.508,,-87,-75,966,91000,152600,15540,235,30,-430
21:00:16.527,,-103,-128,780,88130,155820,15330,219,49,-427
21:00:16.545,,-123,-162,620,87780,152810,17500,213,79,-439
21:00:16.564,,-150,-143,470,92610,144690,22190,196,102,-430
21:00:16.583,,-177,-63,341,96530,132650,26880,175,120,-439
21:00:16.602,,-218,32,226,92960,118370,30450,169,141,-427
21:00:16.620,,-262,120,150,80010,101780,32410,153,153,-427
21:00:16.639,,-291,176,108,62230,83580,33740,150,171,-433
21:00:16.658,,-321,216,69,50820,65240,34160,130,175,-430
21:00:16.677,,-321,216,69,50820,65240,34160,129,184,-421
21:00:16.696,,-330,260,27,46550,47180,31570,121,195,-426
21:00:16.714,,-319,347,9,43820,30310,26110,121,187,-420
21:00:16.733,,-307,412,-4,34580,15610,17710,108,196,-420
21:00:16.752,,-320,470,29,21490,3150,7350,108,198,-426
21:00:16.771,,-353,475,33,6300,-7700,-2660,108,190,-429
21:00:16.790,,-317,465,4,-9730,-21980,-15330,121,186,-423
21:00:16.808,,-329,492,45,-21490,-32970,-27230,129,180,-429
21:00:16.827,,-335,450,76,-29890,-45780,-36750,129,166,-430
21:00:16.846,,-336,464,140,-34160,-59710,-47320,139,153,-435
21:00:16.865,,-349,479,248,-36050,-73290,-58170,141,141,-433
21:00:16.883,,-327,480,331,-38080,-88970,-71400,142,124,-436
21:00:16.902,,-278,501,403,-36470,-104370,-87780,148,109,-441
21:00:16.921,,-221,515,435,-30100,-118650,-105140,156,87,-450
21:00:16.940,,-191,538,464,-22680,-132020,-121450,156,87,-450
21:00:16.959,,-163,513,532,-23100,-146300,-138180,154,58,-445
21:00:16.977,,-111,446,603,-39620,-159880,-155960,156,39,-439
21:00:16.996,,-122,336,661,-56210,-169680,-170940,166,16,-438
21:00:17.015,,-129,137,755,-59430,-183820,-180670,172,-16,-436
21:00:17.034,,-149,0,915,-44170,-198800,-189420,159,-52,-420
21:00:17.053,,-64,-147,1118,-21700,-217770,-197260,156,-79,-411
21:00:17.071,,57,-239,1294,-7070,-230160,-200410,138,-115,-403
21:00:17.090,,155,-322,1429,-6860,-231910,-192430,124,-138,-376
21:00:17.109,,242,-419,1583,-17150,-225750,-175350,108,-175,-363
21:00:17.128,,314,-553,1774,-26110,-209090,-152460,93,-189,-351
21:00:17.147,,322,-574,1935,-27230,-180390,-130200,91,-214,-322
21:00:17.165,,298,-494,1958,-24010,-145530,-109690,84,-225,-306
21:00:17.184,,241,-421,1913,-26460,-110530,-90860,75,-231,-300
21:00:17.203,,245,-409,1821,-40040,-80150,-76860,58,-238,-289
21:00:17.222,,255,-499,1771,-45080,-53830,-59990,67,-244,-297
21:00:17.240,,247,-504,1726,-32200,-31150,-40810,60,-244,-294
21:00:17.259,,207,-403,1673,-13020,-11970,-20440,63,-246,-289
21:00:17.278,,205,-271,1626,-980,2380,-3570,60,-247,-288
21:00:17.297,,216,-180,1615,1750,16660,7490,67,-246,-292
21:00:17.316,,223,-116,1623,2240,32620,12460,75,-238,-307
21:00:17.334,,236,-61,1659,4690,48650,14490,66,-232,-304
21:00:17.353,,262,-33,1699,7140,64050,14770,66,-228,-318
21:00:17.372,,263,-35,1726,8960,80290,15540,64,-213,-327
21:00:17.391,,255,-62,1745,10010,95690,17710,67,-208,-336
21:00:17.410,,251,-96,1731,9870,110040,22330,70,-184,-348
21:00:17.428,,218,-142,1696,11130,124530,30100,69,-181,-358
21:00:17.447,,183,-177,1654,14490,137760,37380,70,-154,-373
21:00:17.466,,155,-182,1550,17780,150080,43190,75,-139,-381
21:00:17.485,,100,-195,1398,17220,162050,49420,78,-120,-393
21:00:17.503,,32,-198,1267,9450,171780,54250,78,-105,-400
21:00:17.522,,-34,-222,1148,1400,176960,58730,88,-70,-414
21:00:17.541,,-83,-256,1019,-1260,178710,63140,88,-46,-423
21:00:17.560,,-113,-272,883,6370,178500,66570,90,-28,-430
21:00:17.579,,-160,-262,757,21420,177520,69860,94,1,-429
21:00:17.597,,-200,-201,658,33950,174090,71610,91,24,-442
21:00:17.616,,-246,-112,548,34230,169120,71680,90,48,-436
21:00:17.635,,-256,-86,424,22050,159950,71050,91,75,-445
21:00:17.654,,-261,-79,292,10220,147980,70560,79,94,-442
21:00:17.673,,-278,-72,215,3920,135100,71750,85,112,-445
21:00:17.691,,-303,-23,167,4480,121590,72170,87,126,-433
21:00:17.710,,-339,55,141,6790,108570,71050,82,138,-435
21:00:17.729,,-405,108,109,7210,94920,69090,82,150,-433
21:00:17.748,,-444,154,69,5460,78540,64820,73,163,-423
21:00:17.766,,-467,210,40,2520,61110,59010,75,169,-432
21:00:17.785,,-476,238,66,-1260,44030,54250,79,175,-433
21:00:17.804,,-481,265,95,-4830,28420,49980,76,180,-424
21:00:17.823,,-474,249,78,-13020,13300,44730,73,172,-427
21:00:17.842,,-498,253,99,-22750,1260,39060,84,177,-432
21:00:17.860,,-497,195,107,-32900,-11410,34510,87,174,-436
21:00:17.879,,-478,131,71,-43400,-24290,30730,99,172,-444
21:00:17.898,,-459,97,45,-54390,-37660,27510,103,166,-435
21:00:17.917,,-467,76,82,-66010,-50260,24640,112,153,-442
21:00:17.935,,-506,45,166,-75740,-61460,22120,112,153,-442
21:00:17.954,,-518,22,220,-81970,-74760,17290,127,138,-444
21:00:17.973,,-519,52,242,-87990,-88130,9380,138,126,-447
21:00:17.992,,-501,66,231,-101850,-102130,-1540,157,112,-445
21:00:18.011,,-507,73,304,-119280,-115220,-14210,171,90,-447
21:00:18.029,,-530,-2,464,-135450,-129500,-24570,195,69,-439
21:00:18.048,,-457,-291,637,-142520,-150920,-33670,213,51,-439
21:00:18.067,,-283,-501,830,-122780,-171850,-37730,229,25,-429
21:00:18.086,,-209,-460,1134,-81760,-181300,-28700,247,-1,-417
21:00:18.105,,-170,-392,1339,-41580,-188650,-11340,252,-31,-406
21:00:18.123,,-77,-240,1490,-21840,-193340,770,259,-51,-408
21:00:18.142,,43,-55,1678,-21490,-187530,7770,268,-75,-393
21:00:18.161,,124,17,1835,-33390,-169750,12460,262,-100,-384
21:00:18.180,,139,69,1872,-46200,-142240,10500,271,-126,-373
21:00:18.198,,161,7,1839,-52920,-115010,3780,277,-132,-369
21:00:18.217,,130,-51,1806,-51730,-88690,-840,288,-138,-352
21:00:18.236,,79,-104,1779,-45290,-68320,2450,291,-154,-349
21:00:18.255,,57,-113,1739,-35630,-56000,10430,298,-165,-345
21:00:18.274,,67,-88,1642,-28280,-46480,17220,304,-172,-331
21:00:18.292,,66,-69,1546,-20300,-36260,19740,298,-174,-330
21:00:18.311,,64,-46,1461,-10500,-25970,17150,312,-169,-336
21:00:18.330,,49,-36,1378,-4550,-14630,11200,309,-165,-318
21:00:18.349,,40,-73,1307,-4200,-5110,5320,312,-166,-313
21:00:18.368,,31,-134,1250,-4900,2100,2030,307,-160,-322
21:00:18.386,,33,-176,1197,-2660,6720,1960,318,-166,-328
21:00:18.405,,41,-199,1136,1960,9520,3220,315,-168,-327
21:00:18.424,,40,-199,1089,6020,12110,4060,315,-168,-327
21:00:18.443,,40,-196,1049,7840,14000,4200,310,-153,-330
21:00:18.461,,40,-196,1049,7000,15680,4200,315,-168,-321
21:00:18.480,,32,-202,1021,7000,15680,4200,313,-151,-322
21:00:18.499,,22,-199,1001,5600,16310,4200,310,-157,-330
21:00:18.518,,12,-209,980,4690,16100,4200,310,-150,-336
21:00:18.537,,-1,-211,962,5040,14910,4270,309,-150,-333
21:00:18.555,,-10,-202,958,5950,12600,4340,324,-156,-339
21:00:18.574,,-13,-192,961,5810,9940,4410,310,-153,-345
21:00:18.593,,-21,-188,977,4410,7770,4620,318,-145,-340
21:00:18.612,,-27,-188,990,3150,5740,4270,313,-150,-342
21:00:18.631,,-40,-183,1001,2940,4130,3990,310,-145,-336
21:00:18.649,,-45,-175,1018,2870,2730,3640,309,-153,-337
21:00:18.668,,-49,-168,1024,1890,1890,3010,316,-147,-340
21:00:18.687,,-52,-168,1025,140,1260,2170,316,-151,-343
21:00:18.706,,-53,-169,1037,-700,840,1400,321,-145,-346
21:00:18.724,,-48,-180,1053,-70,350,1190,310,-151,-348
21:00:18.743,,-48,-173,1064,1120,770,1400,313,-148,-342
21:00:18.762,,-48,-161,1062,1330,1330,1470,313,-144,-337
21:00:18.781,,-46,-160,1051,0,2100,1260,318,-154,-346
21:00:18.800,,-53,-162,1047,-980,3010,1050,307,-144,-348
21:00:18.818,,-60,-167,1045,-1260,3570,770,316,-145,-342
21:00:18.837,,-70,-169,1040,-1050,3710,770,315,-141,-340
21:00:18.856,,-69,-166,1038,-280,2940,1050,313,-139,-346
21:00:18.875,,-70,-155,1038,560,2380,1260,315,-148,-342
21:00:18.894,,-66,-149,1032,840,2030,840,315,-148,-342
21:00:18.912,,-66,-143,1031,630,2030,-140,310,-142,-346
21:00:18.931,,-71,-147,1033,-420,2170,-1190,304,-139,-340
21:00:18.950,,-70,-162,1032,-910,1610,-1750,315,-148,-336
21:00:18.969,,-67,-162,1033,-70,980,-1820,316,-142,-334
21:00:18.987,,-69,-159,1034,280,630,-1610,309,-142,-334
21:00:19.006,,-64,-159,1035,0,350,-1540,315,-142,-337
21:00:19.025,,-69,-157,1033,-490,630,-1610,309,-139,-342
21:00:19.044,,-72,-158,1027,-700,420,-1890,315,-142,-342
21:00:19.063,,-77,-160,1033,-630,140,-2030,318,-139,-343
21:00:19.081,,-76,-164,1029,-70,-560,-2170,315,-142,-340
21:00:19.100,,-73,-164,1037,210,-1190,-2170,309,-147,-343
21:00:19.119,,-72,-168,1032,-350,-1400,-2170,313,-147,-343
21:00:19.138,,-70,-171,1034,-1050,-1540,-2310,321,-135,-342
21:00:19.156,,-71,-171,1035,-1400,-1330,-2170,313,-150,-348
21:00:19.175,,-71,-173,1030,-1470,-1540,-1890,306,-142,-345
21:00:19.194,,-74,-175,1042,-1400,-1680,-1470,312,-151,-345
21:00:19.213,,-72,-178,1041,-1470,-1890,-1330,313,-139,-340
21:00:19.232,,-71,-173,1044,-1330,-1890,-1190,318,-144,-346
21:00:19.250,,-68,-171,1042,-1190,-2030,-840,315,-148,-340
21:00:19.269,,-65,-168,1045,-1330,-2030,-560,316,-145,-342
21:00:19.288,,-63,-166,1046,-1680,-1820,-560,315,-148,-342
21:00:19.307,,-62,-170,1046,-2170,-1610,-630,318,-145,-342
21:00:19.326,,-62,-174,1051,-1750,-1470,-560,316,-145,-345
21:00:19.344,,-60,-170,1048,-1050,-1400,-490,312,-139,-343
21:00:19.363,,-59,-165,1047,-1050,-1330,-350,315,-147,-340
21:00:19.382,,-55,-169,1049,-1680,-1190,-280,315,-142,-342
21:00:19.401,,-58,-170,1045,-1750,-840,-140,313,-148,-346
21:00:19.419,,-59,-168,1049,-1190,-700,-140,312,-144,-352
21:00:19.438,,-63,-170,1049,-1470,-350,-490,309,-141,-337
21:00:19.457,,-57,-174,1050,-1330,-490,-490,316,-145,-351
21:00:19.476,,-57,-171,1048,-980,-350,-210,309,-145,-348
21:00:19.495,,-58,-168,1044,-980,-140,-70,309,-144,-346
21:00:19.513,,-63,-170,1044,-1400,70,-280,310,-141,-345
21:00:19.532,,-65,-174,1044,-1400,-70,-490,316,-142,-337
21:00:19.551,,-61,-179,1045,-840,-280,-630,318,-145,-339
21:00:19.570,,-59,-177,1046,-350,-280,-490,313,-142,-339
21:00:19.589,,-56,-175,1047,-420,-70,-350,313,-144,-342
21:00:19.607,,-59,-176,1047,-840,630,-280,321,-145,-328
21:00:19.626,,-64,-178,1045,-1400,1330,-350,316,-145,-348
21:00:19.645,,-67,-178,1041,-1680,1470,-280,321,-144,-333
21:00:19.664,,-68,-181,1038,-1540,1050,-140,315,-147,-339
21:00:19.682,,-64,-178,1038,-420,280,-70,315,-139,-330
21:00:19.701,,-68,-168,1038,70,350,-140,318,-147,-336
21:00:19.720,,-67,-170,1035,-630,420,-420,322,-141,-333
21:00:19.739,,-70,-175,1033,-1400,490,-700,318,-138,-334
21:00:19.758,,-68,-176,1032,-1050,70,-770,315,-147,-340
21:00:19.776,,-69,-175,1035,-770,-350,-630,315,-147,-340
21:00:19.795,,-67,-179,1037,-350,-980,-560,319,-145,-340
21:00:19.814,,-68,-177,1044,210,-1260,-420,313,-148,-343
21:00:19.833,,-67,-174,1045,280,-1400,-560,315,-148,-342
21:00:19.852,,-69,-172,1049,-140,-1050,-560,313,-144,-349
21:00:19.870,,-71,-174,1049,-770,-910,-630,313,-144,-349
21:00:19.889,,-73,-178,1047,-280,-980,-560,318,-145,-345
21:00:19.908,,-73,-171,1045,840,-1190,-490,321,-139,-337
21:00:19.927,,-73,-169,1045,700,-1190,-560,321,-144,-348
21:00:19.945,,-70,-178,1043,140,-1050,-770,319,-147,-339
21:00:19.964,,-71,-176,1039,420,-840,-770,313,-150,-339
21:00:19.983,,-69,-174,1041,420,-910,-700,315,-144,-339
21:00:20.002,,-65,-178,1037,70,-980,-560,313,-144,-345
21:00:20.021,,-66,-175,1036,140,-910,-490,312,-142,-340
21:00:20.039,,-67,-174,1033,-70,-910,-630,325,-144,-345
21:00:20.058,,-65,-175,1035,-770,-910,-840,316,-148,-339
21:00:20.077,,-61,-176,1037,-1190,-1050,-770,315,-144,-342
21:00:20.096,,-62,-172,1034,-1050,-1120,-560,313,-144,-343
21:00:20.114,,-64,-171,1036,-770,-1260,-560,316,-151,-339
21:00:20.133,,-67,-174,1037,-490,-1610,-840,315,-145,-337
21:00:20.152,,-66,-177,1039,140,-2100,-1050,319,-145,-339
21:00:20.171,,-66,-176,1046,420,-2240,-980,310,-142,-346
21:00:20.190,,-64,-179,1051,210,-2240,-770,312,-139,-333
21:00:20.209,<gest5_cross_left,,,,,,,,,
21:00:20.208,,-64,-176,1052,70,-1890,-420,316,-141,-337
21:00:20.227,,-69,-174,1054,-280,-1190,-210,312,-135,-339
21:00:20.246,,-68,-174,1054,-560,-770,-140,312,-144,-345
21:00:20.265,,-68,-176,1054,-560,-770,-140,306,-145,-345
21:00:20.284,,-68,-175,1052,-350,-490,-140,310,-141,-340
21:00:20.302,,-64,-175,1047,350,-490,-210,313,-138,-343
21:00:20.321,,-62,-172,1045,980,-420,-70,318,-144,-339
21:00:20.340,,-63,-167,1043,630,-210,-70,309,-142,-343
21:00:20.359,,-62,-173,1039,0,-140,-140,313,-144,-342
21:00:20.378,,-63,-174,1036,350,-280,-140,310,-139,-333
21:00:20.396,,-64,-169,1035,980,-560,-210,312,-147,-342
21:00:20.415,,-63,-170,1038,700,-770,-490,318,-142,-339
21:00:20.434,,-63,-174,1038,280,-910,-840,309,-141,-351
21:00:20.453,,-63,-175,1043,280,-980,-1050,312,-138,-342
21:00:20.471,,-64,-175,1044,350,-1050,-840,312,-151,-345
21:00:20.490,,-64,-173,1045,140,-980,-420,315,-141,-340
21:00:20.509,,-66,-171,1046,0,-770,-280,316,-147,-346
21:00:20.528,,-65,-173,1041,0,-560,-350,319,-142,-342
21:00:20.547,,-64,-172,1040,0,-490,-560,321,-139,-342
21:00:20.565,,-64,-174,1038,-210,-560,-770,306,-142,-345
21:00:20.584,,-62,-175,1040,-70,-700,-630,313,-148,-345
21:00:20.603,,-61,-167,1040,140,-770,-560,316,-156,-345
21:00:20.622,,-59,-165,1035,-140,-700,-770,313,-148,-343
21:00:20.641,,-60,-164,1042,-840,-420,-1050,315,-142,-345
21:00:20.659,,-63,-171,1039,-1400,-280,-1400,313,-138,-346
21:00:20.678,,-64,-174,1041,-980,-490,-1470,318,-148,-345
21:00:20.697,,-64,-168,1039,-350,-910,-1260,306,-147,-339
21:00:20.716,,-65,-166,1039,-420,-1050,-1050,318,-139,-343
21:00:20.734,,-67,-165,1041,-770,-840,-1190,315,-142,-343
21:00:20.753,,-65,-171,1038,-1260,-840,-1540,315,-145,-334
21:00:20.772,,-64,-177,1040,-1260,-980,-1750,313,-142,-337
21:00:20.791,,-66,-181,1042,-1050,-1330,-1610,316,-144,-336
21:00:20.810,,-63,-180,1046,-420,-1610,-1190,318,-147,-325
21:00:20.828,,-61,-176,1046,-490,-1330,-910,318,-147,-325
21:00:20.847,,-63,-177,1042,-1120,-700,-560,321,-145,-337
21:00:20.866,,-65,-177,1039,-1470,-420,-560,316,-141,-345
21:00:20.885,,-66,-174,1035,-1330,-420,-560,316,-148,-337
21:00:20.904,,-66,-173,1035,-1190,-700,-630,319,-142,-337
21:00:20.922,,-62,-173,1038,-1260,-980,-630,310,-150,-336
21:00:20.941,,-59,-172,1038,-1330,-910,-700,321,-144,-340
21:00:20.960,,-60,-174,1038,-1540,-700,-980,316,-148,-336
21:00:20.979,,-61,-176,1035,-1820,-560,-1120,316,-144,-346
21:00:20.997,,-64,-177,1036,-2100,-770,-1120,319,-145,-351
21:00:21.016,,-64,-179,1037,-2100,-1190,-1120,316,-142,-342
21:00:21.035,,-62,-174,1039,-1750,-1680,-1120,315,-139,-346
21:00:21.054,,-61,-172,1042,-1470,-1750,-1120,313,-147,-340
21:00:21.073,,-59,-170,1037,-1190,-1750,-1050,315,-147,-339
21:00:21.091,,-62,-166,1031,-1260,-1540,-980,319,-144,-343
21:00:21.110,,-69,-163,1020,-1610,-1540,-700,313,-139,-340
21:00:21.129,,-79,-164,1016,-2030,-2030,-700,316,-139,-337
21:00:21.148,,-81,-170,1020,-1680,-3360,-1190,322,-150,-337
21:00:21.166,,-75,-175,1027,-770,-4830,-1960,312,-144,-336
21:00:21.185,,-71,-176,1045,-560,-5390,-2380,321,-148,-331
21:00:21.204,,-61,-186,1056,-1680,-5040,-2450,321,-147,-330
21:00:21.223,,-57,-194,1069,-2870,-3850,-2170,315,-148,-327
21:00:21.242,,-57,-198,1068,-3570,-2170,-1750,313,-147,-337
