Sensors' Acquisition [Hz]: Acc@52.0 Gyro@52.0 
hh:mm:ss.ms, Annotation , AccX [mg], AccY, AccZ, GyroX [mdps], GyroY, GyroZ
00:01:52.034,,-23,135,1016,-910,2240,-350
00:01:52.053,,-18,137,1016,-840,2030,-350
00:01:52.071,,-15,134,1013,-1050,2030,-280
00:01:52.090,,-14,130,1015,-1260,2240,-210
00:01:52.109,,-17,129,1016,-980,2520,-280
00:01:52.128,,-20,130,1016,-630,2520,-420
00:01:52.147,,-24,137,1018,-700,2450,-770
00:01:52.166,,-24,137,1020,-980,2380,-560
00:01:52.185,,-21,133,1017,-980,2170,-70
00:01:52.204,,-14,130,1013,-910,1960,350
00:01:52.223,,-12,131,1013,-1120,1960,210
00:01:52.242,,-13,128,1012,-1400,2170,-280
00:01:52.260,,-19,133,1011,-1120,2520,-280
00:01:52.279,,-24,141,1014,-1050,2520,0
00:01:52.298,,-20,134,1016,-1470,2380,140
00:01:52.317,,-17,130,1014,-980,2450,420
00:01:52.336,,-15,133,1014,-280,2590,700
00:01:52.355,,-20,133,1016,-840,2660,700
00:01:52.374,,-20,126,1017,-1750,2380,280
00:01:52.393,,-20,124,1015,-1610,2170,140
00:01:52.412,,-21,128,1016,-840,2170,70
00:01:52.430,,-22,133,1016,-490,2240,70
00:01:52.449,,-24,131,1013,-700,2100,0
00:01:52.468,,-22,128,1013,-980,1820,-140
00:01:52.487,,-19,125,1011,-840,1680,-210
00:01:52.506,,-20,128,1007,-490,1890,-280
00:01:52.525,,-20,129,1005,-560,2100,-560
00:01:52.544,,-22,132,1006,-840,2380,-770
00:01:52.563,,-20,130,1010,-910,2520,-840
00:01:52.582,,-20,131,1012,-560,2870,-700
00:01:52.600,,-20,133,1012,-420,3010,-630
00:01:52.619,,-22,135,1015,-700,3010,-770
00:01:52.638,,-23,132,1017,-1050,2800,-770
00:01:52.657,,-22,132,1015,-840,2660,-560
00:01:52.676,,-22,132,1016,-700,2590,-420
00:01:52.695,,-18,127,1016,-770,2380,-560
00:01:52.714,,-17,129,1013,-490,2380,-700
00:01:52.733,,-21,138,1011,-560,2380,-840
00:01:52.752,,-21,134,1015,-1190,2450,-910
00:01:52.770,,-24,133,1016,-980,2590,-700
00:01:52.789,,-24,137,1014,-630,2590,-350
00:01:52.808,,-24,135,1015,-910,2450,-280
00:01:52.827,,-21,130,1014,-1120,2170,-350
00:01:52.846,,-21,130,1010,-630,2100,-560
00:01:52.865,,-22,135,1010,-420,2100,-630
00:01:52.884,,-28,135,1013,-770,2030,-700
00:01:52.903,,-26,136,1009,-980,1890,-770
00:01:52.922,,-21,134,1006,-840,2030,-840
00:01:52.941,,-23,137,1012,-350,2590,-490
00:01:52.959,,-25,138,1013,-280,2800,-210
00:01:52.978,,-23,130,1011,-980,2590,-280
00:01:52.997,,-20,124,1014,-980,2450,-420
00:01:53.016,,-22,134,1013,-280,2450,-700
00:01:53.035,,-24,137,1013,-560,2310,-910
00:01:53.054,,-26,139,1015,-910,2170,-770
00:01:53.073,,-24,141,1014,-840,2170,-490
00:01:53.092,,-23,136,1013,-700,2310,-140
00:01:53.110,,-21,133,1015,-560,2450,70
00:01:53.129,,-22,135,1014,-770,2450,140
00:01:53.148,,-25,133,1017,-1400,2100,-140
00:01:53.167,,-22,130,1017,-1610,1750,-490
00:01:53.186,,-23,133,1013,-910,1820,-490
00:01:53.205,,-26,140,1015,-630,1820,-280
00:01:53.224,,-26,141,1016,-1050,1610,-140
00:01:53.243,,-22,132,1013,-1540,1400,-140
00:01:53.262,,-22,129,1011,-980,1470,70
00:01:53.281,,-22,130,1010,-350,1470,140
00:01:53.299,,-21,135,1007,-560,1400,-280
00:01:53.318,,-23,133,1007,-1330,1470,-770
00:01:53.337,,-21,131,1009,-1400,1610,-700
00:01:53.356,,-22,132,1009,-840,1960,-490
00:01:53.375,,-22,140,1009,-700,2100,-280
00:01:53.394,,-20,135,1012,-1470,2030,-420
00:01:53.413,,-19,128,1011,-1470,2100,-490
00:01:53.432,,-20,134,1010,-770,2310,-350
00:01:53.451,,-22,138,1013,-910,2310,-350
00:01:53.469,,-21,131,1013,-1330,2240,-490
00:01:53.488,,-19,133,1011,-1050,2170,-420
00:01:53.507,,-20,138,1012,-1050,2170,-210
00:01:53.526,,-20,134,1014,-1330,2170,-350
00:01:53.545,,-20,134,1013,-1190,2240,-350
00:01:53.564,,-21,134,1012,-1050,2240,-70
00:01:53.583,,-24,135,1016,-1050,2170,0
00:01:53.602,,-23,134,1012,-1260,2030,-280
00:01:53.621,,-21,129,1010,-1330,1890,-280
00:01:53.639,,-18,126,1009,-770,1960,-70
00:01:53.658,,-20,134,1009,-350,2170,-140
00:01:53.677,,-24,137,1009,-1120,2100,-700
00:01:53.696,,-26,135,1010,-1820,1960,-980
00:01:53.715,,-22,131,1010,-1190,2240,-630
00:01:53.723,>gest1_still,,,,,,
00:01:53.734,,-23,138,1008,-70,2660,70
00:01:53.753,,-21,133,1008,-350,2800,70
00:01:53.772,,-20,130,1009,-980,2730,-350
00:01:53.791,,-20,128,1010,-1330,2800,-700
00:01:53.809,,-24,136,1011,-1050,2870,-700
00:01:53.828,,-27,142,1014,-1050,2800,-630
00:01:53.847,,-27,140,1014,-1190,2590,-560
00:01:53.866,,-24,137,1014,-1050,2450,-140
00:01:53.885,,-23,138,1015,-770,2520,210
00:01:53.904,,-21,130,1014,-770,2450,210
00:01:53.923,,-18,129,1014,-700,2380,140
00:01:53.942,,-22,131,1014,-840,2380,-140
00:01:53.961,,-27,133,1015,-1260,2240,-490
00:01:53.980,,-28,133,1016,-1400,1960,-630
00:01:53.998,,-27,135,1014,-910,1820,-420
00:01:54.017,,-24,136,1011,-700,1820,-140
00:01:54.036,,-24,132,1011,-1050,1820,-210
00:01:54.055,,-23,129,1011,-1120,1750,-420
00:01:54.074,,-23,130,1007,-840,1890,-560
00:01:54.093,,-23,131,1006,-630,2030,-560
00:01:54.112,,-25,138,1009,-700,2310,-560
00:01:54.131,,-24,130,1013,-1680,2310,-840
00:01:54.150,,-23,132,1013,-840,2240,-350
00:01:54.168,,-21,135,1011,-350,2240,-280
00:01:54.187,,-22,132,1011,-630,2310,-490
00:01:54.206,,-23,131,1011,-910,2450,-770
00:01:54.225,,-25,133,1012,-840,2310,-770
00:01:54.244,,-24,135,1012,-840,2100,-700
00:01:54.263,,-23,137,1012,-910,2030,-630
00:01:54.282,,-20,135,1011,-1050,2030,-420
00:01:54.301,,-20,133,1011,-980,2170,-420
00:01:54.320,,-22,135,1012,-700,2450,-420
00:01:54.338,,-25,139,1012,-840,2450,-350
00:01:54.357,,-26,132,1013,-1330,2380,-350
00:01:54.376,,-26,128,1012,-980,2100,-350
00:01:54.395,,-22,137,1009,-280,1960,-350
00:01:54.414,,-21,133,1011,-700,1960,-490
00:01:54.433,,-22,129,1011,-840,2100,-630
00:01:54.452,,-26,135,1009,-490,2170,-560
00:01:54.471,,-28,138,1010,-700,2100,-630
00:01:54.490,,-26,133,1011,-980,2170,-910
00:01:54.508,,-26,134,1009,-420,2590,-630
00:01:54.527,,-25,135,1012,-140,2870,-280
00:01:54.546,,-24,131,1014,-560,2870,-420
00:01:54.565,,-24,130,1016,-1050,2730,-770
00:01:54.584,,-25,132,1016,-1190,2590,-1050
00:01:54.603,,-28,136,1017,-910,2520,-1120
00:01:54.622,,-29,142,1017,-700,2380,-910
00:01:54.641,,-29,143,1018,-1050,2170,-560
00:01:54.660,,-25,135,1017,-1540,2100,-490
00:01:54.679,,-23,134,1016,-1260,2100,-350
00:01:54.697,,-25,139,1016,-1260,2030,-280
00:01:54.716,,-27,134,1016,-1890,1680,-350
00:01:54.735,,-24,128,1015,-1960,1400,-700
00:01:54.754,,-24,135,1012,-1190,1470,-910
00:01:54.773,,-26,138,1013,-1120,1470,-840
00:01:54.792,,-26,133,1012,-1400,1540,-840
00:01:54.811,,-25,132,1011,-1330,1470,-700
00:01:54.830,,-23,132,1009,-1260,1330,-700
00:01:54.848,,-22,132,1007,-1260,1330,-980
00:01:54.867,,-25,138,1007,-1260,1610,-1120
00:01:54.886,,-23,136,1008,-1400,1750,-1120
00:01:54.905,,-22,136,1008,-1330,1960,-980
00:01:54.924,,-24,137,1012,-1120,2240,-770
00:01:54.943,,-22,134,1012,-1120,2240,-630
00:01:54.962,,-22,132,1013,-1120,2240,-630
00:01:54.981,,-21,130,1014,-1120,2170,-700
00:01:55.000,,-22,135,1015,-1050,2170,-700
00:01:55.018,,-23,135,1016,-1470,2100,-770
00:01:55.037,,-25,132,1018,-1680,2030,-700
00:01:55.056,,-22,132,1016,-1260,1820,-490
00:01:55.075,,-22,134,1015,-1050,1750,-350
00:01:55.094,,-22,133,1015,-1330,1750,-490
00:01:55.113,,-21,132,1012,-1610,1610,-630
00:01:55.132,,-24,131,1011,-1610,1610,-490
00:01:55.151,,-24,133,1012,-1260,1680,-420
00:01:55.170,,-27,133,1009,-1190,1610,-490
00:01:55.189,,-24,131,1006,-1260,1540,-490
00:01:55.207,,-20,130,1006,-1260,1540,-630
00:01:55.226,,-21,131,1006,-1050,1960,-700
00:01:55.245,,-21,130,1004,-910,2310,-700
00:01:55.264,,-26,133,1008,-1050,2450,-770
00:01:55.283,,-27,133,1011,-1260,2520,-1050
00:01:55.302,,-26,131,1013,-1120,2660,-1190
00:01:55.321,,-26,132,1013,-560,2800,-770
00:01:55.340,,-21,131,1012,-350,2730,-280
00:01:55.359,,-17,129,1012,-910,2590,-420
00:01:55.377,,-19,128,1014,-1540,2660,-910
00:01:55.396,,-25,130,1016,-1540,2660,-1190
00:01:55.415,,-26,135,1016,-840,2450,-1120
00:01:55.434,,-27,143,1017,-280,2240,-770
00:01:55.453,,-25,144,1015,-630,2100,-350
00:01:55.472,,-21,131,1013,-1120,2030,-210
00:01:55.491,,-20,126,1014,-560,2100,140
00:01:55.510,,-19,131,1011,-70,1960,140
00:01:55.529,,-22,130,1012,-630,1890,-490
00:01:55.547,,-26,132,1013,-910,2030,-910
00:01:55.566,,-27,138,1012,-490,2170,-700
00:01:55.585,,-26,137,1013,-560,2100,-280
00:01:55.604,,-23,132,1017,-560,2030,-70
00:01:55.623,,-20,132,1015,-490,1890,0
00:01:55.642,,-24,134,1015,-770,1680,-280
00:01:55.661,,-24,134,1015,-1050,1330,-630
00:01:55.680,,-21,133,1013,-910,1260,-700
00:01:55.699,,-21,137,1010,-420,1610,-560
00:01:55.717,,-24,143,1012,-700,1750,-350
00:01:55.736,,-22,135,1011,-1540,1540,-420
00:01:55.755,,-21,130,1010,-1400,1680,-420
00:01:55.774,,-19,137,1008,-560,1820,-280
00:01:55.793,,-22,143,1011,-700,2030,-210
00:01:55.812,,-22,132,1012,-1400,2100,-140
00:01:55.831,,-19,129,1011,-840,2030,-70
00:01:55.850,,-19,133,1010,-70,2030,-70
00:01:55.869,,-21,140,1009,-210,2170,-420
00:01:55.887,,-22,145,1006,-1050,2240,-630
00:01:55.906,,-22,137,1011,-1680,2380,-280
00:01:55.925,,-23,134,1014,-1050,2660,210
00:01:55.944,,-25,141,1014,-420,2730,350
00:01:55.963,,-25,132,1016,-840,2450,280
00:01:55.982,,-21,127,1011,-840,2100,70
00:01:56.001,,-21,136,1011,-420,2100,-140
00:01:56.020,,-22,137,1013,-1050,2240,-280
00:01:56.039,,-24,127,1012,-1470,2380,-420
00:01:56.057,,-24,129,1009,-910,2310,-280
00:01:56.076,,-25,136,1011,-350,2380,-490
00:01:56.095,,-24,140,1013,-700,2730,-910
00:01:56.114,,-29,136,1015,-1330,3150,-770
00:01:56.133,,-25,129,1016,-1470,3010,-280
00:01:56.152,,-21,126,1016,-1120,2520,0
00:01:56.171,,-20,132,1015,-980,2310,-420
00:01:56.190,,-24,135,1016,-1470,2100,-1120
00:01:56.199,<gest1_still,,,,,,
00:01:56.209,,-23,137,1012,-1610,1960,-1260
00:01:56.228,,-23,142,1013,-1050,2100,-560
00:01:56.246,,-25,143,1015,-910,2310,0
00:01:56.265,,-27,141,1014,-1190,2380,140
00:01:56.284,,-24,135,1014,-1540,2170,280
00:01:56.303,,-20,128,1012,-1400,1750,560
00:01:56.322,,-21,131,1011,-1120,1750,420
00:01:56.341,,-20,129,1009,-1050,1750,-140
00:01:56.360,,-22,131,1008,-840,1960,-350
00:01:56.379,,-27,135,1010,-560,2170,-210
00:01:56.397,,-28,136,1010,-630,2100,-70
00:01:56.416,,-24,135,1010,-910,2030,0
00:01:56.435,,-24,132,1009,-980,2240,70
00:01:56.454,,-27,135,1012,-1050,2380,0
00:01:56.473,,-25,133,1013,-1260,2310,-210
00:01:56.492,,-25,129,1014,-1050,2450,-210
00:01:56.511,,-26,135,1014,-700,2520,-140
00:01:56.530,,-27,134,1016,-1050,2310,-280
00:01:56.549,,-25,131,1017,-1470,2100,-560
00:01:56.568,,-22,128,1015,-1260,2100,-560
00:01:56.586,,-23,130,1014,-980,2170,-420
00:01:56.605,,-24,133,1015,-1120,2170,-700
00:01:56.624,,-25,136,1015,-1540,2100,-840
00:01:56.643,,-23,131,1015,-1820,1960,-910
00:01:56.662,,-20,129,1014,-1470,2030,-700
00:01:56.681,,-20,133,1011,-910,2100,-560
00:01:56.700,,-21,133,1009,-980,2030,-770
00:01:56.719,,-23,138,1009,-1400,2310,-910
00:01:56.738,,-24,134,1011,-1190,2520,-420
00:01:56.756,,-27,136,1012,-700,2660,-70
00:01:56.775,,-23,137,1011,-840,2450,-70
00:01:56.794,,-21,127,1012,-1330,2380,-210
00:01:56.813,,-22,129,1011,-910,2520,-140
00:01:56.832,,-27,131,1009,-630,2590,-140
00:01:56.851,,-27,129,1011,-980,2310,-490
00:01:56.870,,-25,126,1014,-700,2240,-700
00:01:56.889,,-25,130,1011,210,2590,-700
00:01:56.908,,-26,137,1011,490,2870,-630
00:01:56.926,,-28,140,1012,-630,2730,-700
00:01:56.945,,-25,130,1012,-1750,2590,-840
00:01:56.964,,-24,126,1013,-1190,2730,-560
00:01:56.983,,-25,135,1012,-70,2870,-280
00:01:57.002,,-28,142,1013,-490,2730,-420
00:01:57.021,,-29,136,1017,-1400,2520,-770
00:01:57.040,,-30,134,1016,-1120,2380,-560
00:01:57.059,,-26,135,1015,-210,2310,70
00:01:57.078,,-26,134,1017,0,2240,280
00:01:57.096,,-26,133,1016,-350,2100,-140
00:01:57.115,,-25,128,1014,-1050,1820,-630
00:01:57.134,,-25,129,1014,-840,1750,-700
00:01:57.153,,-28,135,1012,-280,1960,-700
00:01:57.172,,-32,139,1013,-490,2100,-700
00:01:57.191,,-31,133,1014,-1120,1960,-630
00:01:57.210,,-27,128,1011,-910,1750,-420
00:01:57.229,,-24,130,1010,-280,1820,-560
00:01:57.248,,-27,136,1010,-420,1960,-1120
00:01:57.266,,-27,136,1011,-980,1890,-1470
00:01:57.285,,-29,137,1011,-1050,1960,-1260
00:01:57.304,,-27,138,1011,-700,2030,-980
00:01:57.323,,-26,138,1010,-420,2100,-700
00:01:57.342,,-24,136,1011,-490,2240,-700
00:01:57.361,,-25,137,1012,-630,2380,-770
00:01:57.380,,-26,136,1013,-840,2380,-910
00:01:57.399,,-28,136,1014,-840,2380,-840
00:01:57.418,,-25,134,1014,-560,2240,-700
