Sensors' Acquisition [Hz]: Acc@52.0 Gyro@52.0 Mag@52.0 
hh:mm:ss.ms, Annotation , AccX [mg], AccY, AccZ, GyroX [mdps], GyroY, GyroZ, MagX [mgauss], MagY, MagZ
00:02:07.185,,-64,47,1060,-1750,-1120,-2030,169,-304,-918
00:02:07.203,,-64,35,1058,-2100,-1750,-2730,168,-306,-919
00:02:07.222,,-60,35,1062,-1050,-2170,-3010,156,-303,-916
00:02:07.241,,-62,35,1067,-1260,-2030,-2800,174,-303,-916
00:02:07.259,,-59,31,1069,-1960,-1960,-3150,165,-300,-919
00:02:07.278,,-59,32,1065,-1820,-1680,-3360,160,-309,-916
00:02:07.296,,-58,26,1064,-2310,-1610,-3220,172,-300,-910
00:02:07.315,,-58,24,1062,-2030,-1680,-2800,163,-289,-913
00:02:07.333,,-58,29,1061,-1330,-1610,-2590,171,-306,-912
00:02:07.352,,-55,22,1057,-1960,-1680,-2730,165,-307,-924
00:02:07.371,,-55,20,1058,-2240,-1610,-2730,159,-312,-918
00:02:07.389,,-56,18,1058,-2520,-1820,-2380,171,-301,-915
00:02:07.408,,-60,18,1063,-2520,-2100,-1890,171,-312,-916
00:02:07.426,,-59,23,1066,-2310,-2310,-1820,163,-304,-913
00:02:07.445,,-57,19,1066,-2660,-2310,-1890,172,-304,-910
00:02:07.464,,-55,12,1072,-2660,-2310,-1680,162,-312,-912
00:02:07.482,,-54,17,1077,-1820,-2030,-1050,162,-306,-915
00:02:07.501,,-49,22,1076,-1960,-1750,-560,169,-307,-915
00:02:07.519,,-44,26,1076,-2380,-1120,-490,169,-307,-915
00:02:07.538,,-43,26,1069,-2380,-560,-350,163,-301,-918
00:02:07.556,,-46,33,1061,-1680,-350,0,169,-303,-912
00:02:07.575,,-52,43,1057,-1260,-560,210,168,-301,-912
00:02:07.594,,-54,47,1057,-1190,-1050,-280,156,-306,-918
00:02:07.612,,-54,47,1057,-770,-1680,-1050,166,-297,-910
00:02:07.631,,-51,45,1060,-560,-2100,-1400,169,-303,-916
00:02:07.649,,-44,40,1062,-1120,-1960,-1750,163,-309,-915
00:02:07.668,,-44,33,1065,-1960,-1470,-1960,165,-307,-910
00:02:07.686,,-44,25,1064,-2520,-1190,-1960,166,-306,-912
00:02:07.705,,-50,29,1060,-2310,-980,-1680,174,-304,-913
00:02:07.724,,-49,27,1058,-2310,-1050,-1610,162,-307,-915
00:02:07.742,,-50,31,1060,-2380,-1050,-1540,157,-309,-913
00:02:07.761,,-51,28,1060,-2800,-1120,-1400,162,-301,-910
00:02:07.779,,-51,28,1064,-2940,-1190,-1260,171,-307,-913
00:02:07.798,,-51,26,1062,-2730,-1330,-1190,166,-303,-916
00:02:07.817,,-57,30,1063,-2030,-1400,-910,171,-304,-912
00:02:07.835,,-59,31,1063,-1680,-1750,-840,162,-315,-922
00:02:07.854,,-55,32,1066,-1050,-2100,-1050,165,-307,-921
00:02:07.872,,-53,34,1068,-910,-2100,-1400,168,-303,-922
00:02:07.891,,-51,24,1068,-1540,-1750,-1330,163,-304,-922
00:02:07.909,,-53,22,1067,-1540,-1330,-840,163,-310,-918
00:02:07.928,,-53,26,1065,-1330,-1050,-210,166,-309,-918
00:02:07.947,,-53,26,1065,-1190,-1050,140,166,-313,-912
00:02:07.965,,-54,31,1065,-1190,-1050,140,171,-303,-916
00:02:07.984,,-56,38,1067,-1190,-910,70,156,-312,-918
00:02:08.002,,-54,39,1065,-1750,-770,-140,163,-310,-921
00:02:08.021,,-50,36,1063,-2030,-700,-350,159,-304,-916
00:02:08.039,,-49,37,1059,-2030,-700,-420,160,-315,-927
00:02:08.058,,-46,35,1060,-1750,-1050,-420,160,-300,-916
00:02:08.077,,-44,43,1060,-1120,-1260,-420,162,-313,-916
00:02:08.095,,-42,48,1061,-1470,-980,-490,165,-301,-918
00:02:08.114,,-43,43,1061,-2310,-630,-700,165,-301,-918
00:02:08.132,,-49,45,1057,-2450,-350,-840,166,-304,-922
00:02:08.151,,-48,42,1058,-2100,-630,-910,166,-304,-918
00:02:08.170,,-47,45,1056,-1610,-980,-1260,162,-300,-909
00:02:08.188,,-44,40,1054,-1960,-1120,-1400,166,-301,-916
00:02:08.207,,-48,39,1056,-2310,-980,-1260,166,-304,-907
00:02:08.225,,-51,41,1055,-2030,-1120,-1190,165,-304,-909
00:02:08.244,,-53,48,1054,-1750,-1260,-1190,166,-306,-918
00:02:08.262,,-53,45,1060,-1960,-1610,-1330,163,-306,-907
00:02:08.281,,-52,46,1062,-1750,-1890,-1610,165,-316,-913
00:02:08.300,,-50,49,1064,-1750,-1820,-1750,168,-301,-913
00:02:08.318,,-48,40,1064,-2380,-1680,-1960,162,-310,-913
00:02:08.337,,-49,37,1064,-2310,-1400,-1960,160,-306,-921
00:02:08.355,,-51,35,1063,-2240,-1330,-1610,171,-310,-913
00:02:08.374,,-52,36,1064,-2030,-1260,-1330,154,-307,-912
00:02:08.393,,-52,40,1064,-1890,-1190,-1470,165,-301,-913
00:02:08.411,,-51,34,1063,-2170,-1120,-1680,163,-304,-910
00:02:08.430,,-50,34,1060,-2100,-1050,-1610,162,-304,-913
00:02:08.448,,-49,36,1063,-2240,-980,-1260,160,-306,-913
00:02:08.467,,-49,35,1064,-2520,-980,-1120,162,-297,-924
00:02:08.485,,-51,39,1062,-2520,-770,-1190,168,-309,-915
00:02:08.504,,-49,37,1058,-2870,-560,-1260,162,-306,-916
00:02:08.523,,-51,35,1059,-2730,-490,-1120,168,-304,-915
00:02:08.541,,-49,37,1056,-2310,-770,-1050,166,-306,-918
00:02:08.560,,-47,42,1057,-2310,-980,-980,172,-309,-921
00:02:08.578,,-49,43,1060,-2520,-1120,-1050,163,-312,-922
00:02:08.597,,-48,42,1065,-2590,-1120,-1120,166,-303,-915
00:02:08.616,,-47,45,1070,-2240,-1120,-1400,166,-298,-922
00:02:08.634,,-48,43,1070,-1960,-1050,-1680,163,-303,-913
00:02:08.653,,-55,42,1069,-1820,-910,-1680,165,-307,-918
00:02:08.671,,-54,41,1065,-1540,-840,-1750,163,-301,-909
00:02:08.690,,-52,36,1063,-1400,-840,-1890,166,-304,-922
00:02:08.708,,-51,32,1060,-1120,-910,-2030,166,-304,-922
00:02:08.727,,-51,29,1055,-1050,-910,-1750,159,-309,-921
00:02:08.746,,-54,28,1056,-1260,-910,-1120,159,-315,-927
00:02:08.764,,-54,30,1063,-1400,-1050,-770,166,-310,-913
00:02:08.783,,-52,35,1064,-1260,-1190,-910,162,-306,-915
00:02:08.801,,-50,36,1062,-1330,-1050,-1050,168,-304,-915
00:02:08.820,,-48,33,1061,-1960,-700,-910,160,-307,-909
00:02:08.839,,-48,33,1058,-2170,-350,-490,166,-309,-919
00:02:08.857,,-50,34,1056,-2170,-350,-350,163,-301,-918
00:02:08.876,,-51,33,1053,-2310,-560,-350,159,-304,-916
00:02:08.894,,-50,35,1054,-2100,-910,-280,162,-307,-910
00:02:08.913,,-50,39,1057,-1750,-1120,0,168,-304,-922
00:02:08.931,,-48,44,1056,-1890,-1120,-70,163,-310,-916
00:02:08.950,,-46,43,1055,-2240,-1260,-420,154,-304,-922
00:02:08.969,,-47,45,1056,-2310,-1470,-490,168,-310,-918
00:02:08.987,,-48,49,1062,-2170,-1610,-420,160,-309,-913
00:02:09.006,,-47,54,1062,-2100,-1610,-770,162,-304,-916
00:02:09.024,,-47,51,1063,-2030,-1610,-1330,166,-309,-918
00:02:09.043,,-45,48,1065,-2030,-1610,-1680,166,-309,-915
00:02:09.062,,-46,47,1067,-2030,-1540,-1610,160,-304,-921
00:02:09.080,,-51,45,1069,-2030,-1330,-1540,160,-306,-919
00:02:09.099,,-52,45,1069,-1680,-1050,-1680,165,-310,-915
00:02:09.117,,-52,45,1066,-1470,-910,-1820,169,-303,-916
00:02:09.136,,-48,43,1061,-1750,-840,-1820,160,-312,-918
00:02:09.154,,-49,38,1061,-1750,-910,-1820,165,-309,-916
00:02:09.173,,-53,36,1065,-1190,-1260,-1820,172,-304,-918
00:02:09.192,,-52,42,1067,-420,-1540,-1750,159,-304,-913
00:02:09.210,,-48,43,1068,-630,-1470,-1890,168,-304,-913
00:02:09.229,,-46,38,1067,-1330,-980,-1890,165,-300,-925
00:02:09.247,,-44,35,1061,-1540,-420,-1540,157,-309,-915
00:02:09.266,,-45,40,1054,-1260,-70,-980,157,-306,-919
00:02:09.285,,-48,45,1051,-1610,0,-700,157,-306,-919
00:02:09.303,,-51,49,1046,-1960,-140,-770,159,-298,-922
00:02:09.322,,-51,49,1046,-1960,-140,-770,168,-301,-916
00:02:09.340,,-53,49,1045,-2170,-630,-910,160,-307,-912
00:02:09.359,,-56,51,1049,-2100,-1330,-1050,162,-298,-918
00:02:09.377,,-50,50,1053,-1890,-1890,-1330,166,-303,-924
00:02:09.396,,-46,49,1057,-1750,-1960,-1610,165,-300,-918
00:02:09.415,,-41,45,1056,-2310,-1540,-1680,162,-306,-922
00:02:09.433,,-45,45,1058,-2870,-1120,-1470,166,-306,-919
00:02:09.452,,-51,47,1062,-3010,-1190,-1330,163,-301,-919
00:02:09.470,,-52,54,1064,-2730,-1540,-1470,162,-304,-916
00:02:09.489,,-49,52,1067,-2870,-1680,-1960,159,-310,-921
00:02:09.508,,-50,46,1068,-2730,-1470,-2310,171,-307,-916
00:02:09.526,,-52,44,1071,-2310,-1120,-2170,163,-304,-913
00:02:09.545,,-53,43,1072,-2240,-1050,-2030,165,-306,-915
00:02:09.563,,-53,43,1066,-2170,-910,-2100,162,-307,-915
00:02:09.582,,-54,38,1066,-2310,-700,-1960,160,-306,-921
00:02:09.601,,-53,35,1067,-2100,-630,-1750,163,-303,-918
00:02:09.619,,-53,37,1063,-1610,-630,-1610,162,-304,-910
00:02:09.638,,-53,37,1059,-1750,-490,-1540,160,-306,-924
00:02:09.656,,-52,39,1052,-2240,-280,-1330,162,-300,-915
00:02:09.675,,-54,39,1051,-2800,0,-840,162,-301,-919
00:02:09.693,,-54,38,1046,-3150,-280,-700,159,-301,-919
00:02:09.712,,-53,42,1046,-2730,-560,-560,163,-304,-921
00:02:09.731,,-51,43,1047,-2730,-1120,-630,166,-306,-924
00:02:09.749,,-48,46,1050,-2590,-1540,-840,163,-310,-912
00:02:09.768,,-54,50,1054,-2800,-1680,-980,163,-304,-918
00:02:09.786,,-50,44,1063,-3080,-2100,-980,162,-301,-915
00:02:09.805,,-49,50,1066,-2240,-2030,-1190,163,-307,-910
00:02:09.824,,-43,49,1070,-2520,-1820,-1470,168,-310,-916
00:02:09.842,,-44,42,1068,-3290,-1400,-1540,165,-309,-915
00:02:09.861,,-45,42,1070,-2730,-1120,-1330,163,-298,-921
00:02:09.879,,-51,47,1070,-1890,-1260,-1330,163,-298,-921
00:02:09.898,,-49,51,1068,-1610,-1540,-1680,157,-309,-919
00:02:09.916,,-46,48,1069,-1960,-1260,-1960,154,-303,-909
00:02:09.935,,-44,42,1068,-2450,-980,-1960,174,-304,-919
00:02:09.954,,-49,42,1067,-2170,-700,-1680,160,-304,-922
00:02:09.972,,-47,47,1062,-1750,-630,-1540,165,-306,-919
00:02:09.991,,-46,50,1058,-1960,-420,-1680,153,-300,-913
00:02:10.009,,-43,49,1053,-2310,-210,-1890,171,-303,-925
00:02:10.028,,-45,50,1053,-2310,-420,-1890,165,-304,-915
00:02:10.047,,-48,52,1051,-2100,-840,-2030,159,-313,-924
00:02:10.065,,-47,51,1056,-1750,-1540,-2520,162,-303,-910
00:02:10.084,,-40,52,1053,-1680,-2030,-3150,162,-310,-912
00:02:10.102,,-41,49,1061,-1960,-1960,-3150,153,-307,-921
00:02:10.121,,-42,43,1065,-2310,-1750,-3080,162,-310,-924
00:02:10.139,,-39,45,1066,-2100,-1470,-3080,168,-309,-913
00:02:10.158,,-42,48,1069,-1960,-1050,-3080,163,-310,-912
00:02:10.177,,-48,46,1069,-1960,-910,-3150,163,-307,-916
00:02:10.195,,-50,49,1064,-2030,-840,-3430,162,-310,-919
00:02:10.214,,-50,41,1067,-2660,-840,-3570,160,-307,-916
00:02:10.232,,-51,32,1067,-2800,-770,-3430,169,-309,-916
00:02:10.251,,-48,36,1062,-2450,-350,-3010,156,-309,-913
00:02:10.270,,-56,34,1058,-2520,140,-2520,160,-306,-913
00:02:10.288,,-65,32,1053,-2660,0,-2450,157,-307,-912
00:02:10.307,,-66,30,1052,-2450,-700,-2380,163,-306,-913
00:02:10.325,,-63,26,1055,-2520,-1260,-2240,160,-310,-913
00:02:10.344,,-59,18,1060,-2590,-1540,-1890,165,-307,-915
00:02:10.363,,-58,18,1064,-2310,-1610,-1470,165,-303,-918
00:02:10.381,,-59,23,1066,-2170,-1330,-630,166,-300,-918
00:02:10.400,,-57,31,1065,-2240,-840,-70,156,-304,-916
00:02:10.418,,-57,33,1061,-2870,-490,140,171,-319,-916
00:02:10.437,,-56,32,1061,-3010,-490,280,160,-303,-912
00:02:10.455,,-55,41,1058,-2310,-770,490,160,-309,-912
00:02:10.474,,-50,49,1059,-2240,-980,490,160,-309,-912
00:02:10.493,,-48,49,1057,-2660,-910,210,160,-303,-915
00:02:10.511,,-47,52,1053,-2730,-700,-70,168,-298,-916
00:02:10.530,,-52,52,1056,-2660,-910,-70,159,-304,-907
00:02:10.548,,-47,53,1058,-2170,-1610,-420,157,-301,-912
00:02:10.567,,-46,56,1061,-1610,-2030,-1050,160,-307,-918
00:02:10.586,,-40,50,1063,-2170,-2170,-1610,165,-303,-915
00:02:10.604,,-39,50,1064,-2240,-1750,-1540,165,-307,-922
00:02:10.623,,-39,53,1067,-2380,-1260,-1330,162,-306,-912
00:02:10.641,,-39,53,1064,-2660,-840,-1540,163,-304,-901
00:02:10.660,,-43,53,1059,-2730,-630,-2030,159,-306,-918
00:02:10.678,,-43,53,1059,-2730,-630,-2030,157,-300,-909
00:02:10.697,,-45,50,1055,-2520,-910,-2380,160,-304,-921
00:02:10.716,,-46,54,1054,-1960,-1260,-2660,160,-309,-916
00:02:10.734,,-48,52,1057,-2100,-1610,-3010,157,-310,-909
00:02:10.753,,-49,41,1061,-2520,-1820,-3500,165,-315,-919
00:02:10.771,,-48,35,1065,-2310,-1960,-3640,156,-310,-918
00:02:10.782,>gest4_cross_right,,,,,,,,,
00:02:10.790,,-48,34,1071,-2240,-1890,-3290,162,-312,-918
00:02:10.809,,-49,34,1071,-2170,-1610,-2730,157,-312,-916
00:02:10.827,,-51,39,1075,-1820,-1120,-2450,156,-310,-922
00:02:10.846,,-51,41,1072,-1890,-770,-2450,163,-312,-910
00:02:10.864,,-54,41,1074,-1750,-560,-2380,166,-304,-915
00:02:10.883,,-55,40,1070,-1330,-560,-2310,159,-315,-916
00:02:10.902,,-48,40,1069,-910,-490,-2380,153,-310,-915
00:02:10.920,,-49,37,1062,-1190,-140,-2380,165,-318,-916
00:02:10.939,,-52,34,1059,-1540,0,-2030,160,-310,-916
00:02:10.957,,-57,33,1057,-1400,-210,-1680,159,-309,-918
00:02:10.976,,-54,38,1058,-1120,-490,-1540,162,-318,-912
00:02:10.994,,-47,37,1059,-1400,-630,-1610,165,-313,-915
00:02:11.013,,-47,38,1054,-1820,-210,-1470,156,-318,-913
00:02:11.032,,-46,40,1048,-2030,-140,-1120,160,-309,-918
00:02:11.050,,-45,52,1041,-2170,-280,-1050,160,-309,-918
00:02:11.069,,-45,63,1032,-2730,-560,-1400,160,-306,-921
00:02:11.087,,-46,65,1027,-3570,-910,-1820,160,-316,-910
00:02:11.106,,-50,64,1033,-3360,-1680,-2380,168,-306,-922
00:02:11.125,,-45,67,1034,-2380,-3080,-3150,162,-307,-910
00:02:11.143,,-37,78,1036,-2310,-3990,-3990,168,-300,-919
00:02:11.162,,-32,70,1037,-3780,-4200,-4830,160,-306,-925
00:02:11.180,,-32,66,1042,-4270,-4340,-5460,160,-310,-918
00:02:11.199,,-38,82,1049,-3430,-5180,-5670,159,-316,-922
00:02:11.217,,-46,101,1075,-3010,-6720,-6440,159,-316,-903
00:02:11.236,,-45,125,1107,-2800,-8050,-7840,162,-318,-907
00:02:11.255,,-41,147,1160,-1750,-8190,-9310,168,-319,-915
00:02:11.273,,-26,143,1222,-1120,-8400,-11480,157,-313,-913
00:02:11.292,,-2,173,1266,630,-8190,-15610,151,-319,-913
00:02:11.310,,12,171,1315,2870,-5740,-18830,157,-319,-907
00:02:11.329,,35,166,1350,4970,-2730,-22260,153,-318,-921
00:02:11.348,,27,168,1382,8610,1470,-24710,151,-318,-919
00:02:11.366,,25,168,1399,11270,5950,-26110,151,-327,-916
00:02:11.385,,30,160,1417,13510,11410,-27790,142,-316,-925
00:02:11.403,,-20,188,1465,15750,17710,-29260,150,-334,-919
00:02:11.422,,9,157,1446,16170,25620,-28560,142,-324,-925
00:02:11.441,,-17,158,1447,11830,33600,-33950,142,-319,-930
00:02:11.459,,-22,80,1486,7350,41650,-37310,136,-319,-927
00:02:11.478,,-10,2,1445,3570,51100,-38080,135,-318,-940
00:02:11.496,,-18,-50,1415,3010,59290,-37520,136,-319,-925
00:02:11.515,,-30,-102,1358,6090,68250,-34370,132,-304,-934
00:02:11.534,,-67,-106,1311,11480,76440,-29400,123,-298,-940
00:02:11.552,,-98,-72,1249,15890,84420,-25270,121,-289,-943
00:02:11.571,,-127,-21,1167,13090,91980,-23450,115,-273,-942
00:02:11.589,,-158,0,1084,2310,98490,-22260,118,-256,-949
00:02:11.608,,-172,-38,973,-8540,102270,-21070,120,-252,-943
00:02:11.626,,-177,-74,853,-9450,102480,-20370,118,-244,-949
00:02:11.645,,-216,-62,754,-1050,100380,-17920,118,-244,-949
00:02:11.664,,-241,-41,648,5460,94920,-14420,121,-231,-949
00:02:11.682,,-274,-16,551,6370,87360,-11270,124,-208,-946
00:02:11.701,,-334,18,481,5600,78540,-6720,112,-210,-957
00:02:11.719,,-378,14,435,3220,68180,-4340,112,-195,-954
00:02:11.738,,-406,70,392,-70,57190,-3220,114,-184,-954
00:02:11.757,,-446,48,370,-6160,50820,-280,106,-178,-943
00:02:11.775,,-477,51,400,-17430,42770,210,127,-168,-946
00:02:11.794,,-513,9,429,-26460,33040,1050,123,-159,-949
00:02:11.812,,-584,-29,472,-19390,22960,1400,123,-171,-939
00:02:11.831,,-605,13,517,-7210,11130,-210,130,-160,-937
00:02:11.850,,-611,61,543,-3360,1120,280,124,-160,-940
00:02:11.868,,-611,37,577,-6720,-6650,1190,129,-162,-940
00:02:11.887,,-617,31,620,-8260,-11830,840,123,-171,-948
00:02:11.905,,-603,9,659,-9310,-14980,1540,121,-163,-940
00:02:11.924,,-588,-32,676,-12250,-17990,1120,126,-168,-934
00:02:11.942,,-586,-55,687,-14770,-20580,1330,123,-168,-942
00:02:11.961,,-589,-101,686,-19180,-23030,3430,127,-169,-943
00:02:11.980,,-566,-112,684,-23730,-25410,6930,133,-172,-934
00:02:11.998,,-547,-131,672,-28280,-26670,12040,136,-175,-931
00:02:12.017,,-514,-137,656,-33740,-27720,15470,136,-181,-930
00:02:12.035,,-514,-137,656,-42770,-28770,17290,139,-180,-928
00:02:12.054,,-473,-208,593,-42770,-28770,17290,148,-184,-928
00:02:12.073,,-481,-193,618,-50470,-33250,20510,157,-181,-921
00:02:12.091,,-426,-230,648,-54110,-40180,25830,160,-186,-921
00:02:12.110,,-317,-201,633,-52360,-47740,28490,171,-190,-910
00:02:12.128,,-213,-151,579,-52290,-53620,29890,174,-187,-906
00:02:12.147,,-207,-186,488,-55790,-56630,34580,183,-198,-906
00:02:12.166,,-242,-204,491,-56700,-63490,40950,195,-202,-907
00:02:12.184,,-205,-213,553,-54530,-77560,45500,187,-213,-897
00:02:12.203,,-181,-211,619,-47670,-94220,48440,190,-214,-894
00:02:12.221,,-104,-204,672,-43330,-112210,45640,198,-225,-897
00:02:12.240,,9,-251,774,-42770,-127050,42700,198,-225,-897
00:02:12.258,,26,-313,849,-39480,-135030,43260,202,-226,-888
00:02:12.277,,56,-307,1042,-31290,-144760,51380,202,-247,-876
00:02:12.296,,130,-213,1183,-13930,-151270,59640,204,-253,-882
00:02:12.314,,204,-79,1263,2240,-150010,62580,213,-268,-868
00:02:12.333,,269,77,1398,700,-146790,57680,216,-277,-871
00:02:12.351,,332,106,1570,-11060,-141190,50540,211,-280,-868
00:02:12.370,,394,107,1628,-11340,-128870,44240,219,-283,-870
00:02:12.389,,398,217,1737,-2800,-114380,41650,217,-300,-858
00:02:12.407,,378,286,1782,-1610,-96320,40180,219,-298,-862
00:02:12.426,,350,300,1841,-7560,-78050,32200,225,-301,-855
00:02:12.444,,355,270,1980,-8400,-61040,22050,223,-312,-852
00:02:12.463,,383,217,1997,-2870,-42210,11340,220,-313,-856
00:02:12.482,,382,162,1985,3500,-21280,3010,223,-306,-861
00:02:12.500,,362,40,1949,6580,-1470,-420,226,-304,-861
00:02:12.519,,314,-52,1937,17010,15610,770,214,-304,-859
00:02:12.537,,298,-102,1888,30940,30940,1890,216,-306,-874
00:02:12.556,,263,-166,1857,40390,46550,3430,208,-294,-876
00:02:12.575,,262,-234,1818,46690,61250,7560,198,-285,-877
00:02:12.593,,221,-183,1818,56560,75600,14350,199,-276,-888
00:02:12.612,,225,-115,1778,65520,90370,20020,190,-258,-892
00:02:12.630,,229,-14,1650,67620,106680,16450,171,-252,-904
00:02:12.649,,213,48,1574,62230,123690,12320,165,-226,-910
00:02:12.667,,188,54,1460,52570,137620,9100,163,-211,-921
00:02:12.686,,173,59,1344,48510,147350,5880,156,-195,-916
00:02:12.705,,142,65,1192,46410,154490,1050,147,-172,-928
00:02:12.723,,137,17,988,39760,158060,-4690,153,-157,-930
00:02:12.742,,98,-25,841,33250,157430,-5880,132,-136,-912
00:02:12.760,,37,-67,713,34370,152460,-1120,130,-121,-924
00:02:12.779,,-5,-22,571,38430,143780,1960,120,-99,-927
00:02:12.798,,-64,7,446,38920,133630,4200,117,-88,-919
00:02:12.816,,-102,17,335,36680,121730,4060,106,-70,-918
00:02:12.835,,-173,95,296,35280,109130,4620,106,-70,-918
00:02:12.853,,-265,167,279,32480,95270,7980,109,-54,-909
00:02:12.872,,-325,175,224,28420,79520,7910,103,-46,-907
00:02:12.891,,-367,207,201,26390,62650,2520,102,-43,-907
00:02:12.909,,-409,242,200,24920,46830,-1400,96,-33,-906
00:02:12.928,,-452,247,190,21070,32620,-3010,91,-31,-903
00:02:12.946,,-478,251,272,14910,19320,-4340,94,-27,-903
00:02:12.965,,-502,246,338,8960,6720,-4830,85,-25,-900
00:02:12.984,,-516,256,433,6580,-3990,-5320,94,-27,-909
00:02:13.002,,-484,270,486,3920,-12880,-9240,81,-30,-904
00:02:13.021,,-487,286,508,-2240,-17710,-12180,94,-30,-906
00:02:13.039,,-476,270,553,-10010,-19110,-12950,87,-28,-906
00:02:13.058,,-437,250,618,-15750,-20790,-13930,102,-34,-907
00:02:13.076,,-357,237,638,-18060,-23380,-16800,102,-40,-912
00:02:13.095,,-324,256,597,-17850,-24220,-20580,103,-37,-909
00:02:13.114,,-333,258,560,-19250,-25970,-22050,105,-49,-912
00:02:13.132,,-345,263,504,-21420,-30100,-22470,108,-52,-913
00:02:13.151,,-396,315,570,-18340,-37730,-18970,109,-58,-909
00:02:13.169,,-371,359,637,-14700,-49490,-21350,112,-72,-907
00:02:13.188,,-309,396,626,-11690,-60620,-31430,114,-79,-909
00:02:13.207,,-270,439,644,-14140,-68110,-44590,123,-91,-922
00:02:13.225,,-242,355,646,-23030,-72730,-54950,121,-97,-919
00:02:13.244,,-278,277,646,-30170,-79100,-62510,142,-120,-921
00:02:13.262,,-335,178,714,-30380,-90720,-65310,144,-133,-918
00:02:13.281,,-344,144,845,-21490,-105840,-66780,147,-150,-919
00:02:13.299,,-275,172,953,-11410,-120400,-71050,151,-175,-918
00:02:13.318,,-217,190,984,-11340,-128100,-80220,151,-202,-924
00:02:13.337,,-214,143,1033,-23590,-129570,-87990,156,-226,-927
00:02:13.355,,-156,-19,1120,-35420,-129220,-93380,165,-250,-921
00:02:13.374,,-91,-80,1204,-31990,-128870,-95900,168,-280,-915
00:02:13.392,,-93,-77,1312,-20860,-127470,-95900,163,-300,-915
00:02:13.411,,-93,-77,1312,-20860,-127470,-95900,163,-300,-915
00:02:13.430,,-64,-29,1394,-18480,-127820,-97370,172,-321,-913
00:02:13.448,,43,-64,1421,-23240,-124110,-101220,169,-348,-901
00:02:13.467,,172,-205,1489,-29330,-115850,-106050,163,-367,-892
00:02:13.485,,278,-394,1585,-33740,-104790,-103600,163,-393,-886
00:02:13.504,,330,-508,1615,-30450,-89320,-88550,168,-405,-885
00:02:13.523,,327,-524,1581,-20090,-67760,-63770,166,-414,-871
00:02:13.541,,300,-464,1493,-14140,-42910,-41230,159,-417,-867
00:02:13.560,,183,-411,1386,-15820,-18830,-21910,162,-426,-876
00:02:13.578,,104,-377,1339,-17010,-3640,-6370,166,-421,-874
00:02:13.597,,62,-308,1279,-10430,3430,3010,163,-421,-870
00:02:13.616,,45,-222,1236,-4270,4830,7140,163,-417,-867
00:02:13.634,,7,-171,1213,-4270,4270,9590,165,-420,-873
00:02:13.653,,44,-161,1210,-5950,3640,9940,162,-423,-865
00:02:13.671,,63,-137,1167,-6160,5320,8750,163,-418,-865
00:02:13.690,,69,-160,1147,-6090,7700,9380,162,-415,-873
00:02:13.708,,72,-163,1119,-2800,8820,11270,169,-412,-876
00:02:13.727,,69,-133,1113,3570,9940,13790,168,-411,-865
00:02:13.746,,74,-97,1079,5390,10360,15400,172,-406,-879
00:02:13.764,,74,-84,1050,3080,10990,16450,172,-403,-882
00:02:13.783,,70,-67,1042,350,11550,16870,175,-399,-883
00:02:13.801,,82,-65,1030,-630,10990,17010,169,-400,-879
00:02:13.820,,89,-73,1034,2450,10080,16590,163,-390,-888
00:02:13.839,,74,-51,1046,7350,8960,16310,175,-394,-886
00:02:13.857,,69,-24,1046,9170,7280,16310,169,-390,-874
00:02:13.876,,64,2,1055,8260,6650,15610,175,-388,-892
00:02:13.894,,68,6,1056,4410,6650,13510,168,-384,-882
00:02:13.913,,66,0,1051,350,7560,11480,169,-379,-880
00:02:13.932,,59,-7,1048,-1750,7840,10220,172,-385,-883
00:02:13.950,,45,-13,1041,-980,6930,9590,183,-382,-877
00:02:13.969,,35,-1,1050,1120,5390,8540,175,-369,-892
00:02:13.987,,41,-1,1045,1400,3570,6790,180,-373,-889
00:02:14.006,,38,-9,1054,1260,2520,5040,180,-373,-889
00:02:14.024,,40,-10,1069,2100,1680,3640,175,-367,-886
00:02:14.043,,48,-13,1071,2660,1330,2660,174,-373,-886
00:02:14.062,,50,-17,1080,3010,1330,1260,166,-378,-892
00:02:14.080,,56,-26,1069,2380,1610,140,172,-372,-885
00:02:14.099,,53,-34,1066,1960,2170,210,172,-381,-885
00:02:14.117,,50,-34,1071,2310,2800,700,172,-370,-886
00:02:14.136,,36,-26,1069,3080,3150,1050,172,-366,-892
00:02:14.155,,28,-18,1072,3290,3430,1050,174,-373,-898
00:02:14.173,,28,-16,1067,2450,3780,630,165,-372,-892
00:02:14.192,,23,-20,1067,2030,4200,140,169,-375,-888
00:02:14.210,,20,-20,1062,2380,4270,-210,171,-373,-889
00:02:14.229,,25,-14,1057,2310,4270,0,172,-372,-895
00:02:14.248,,23,-15,1054,1400,4480,420,169,-373,-888
00:02:14.266,,19,-9,1053,1610,4620,980,159,-369,-891
00:02:14.285,,13,2,1050,2450,4970,1610,171,-364,-900
00:02:14.303,,4,14,1050,2520,5390,1820,165,-372,-892
00:02:14.322,,4,15,1053,1750,5250,1400,163,-355,-898
00:02:14.341,,-1,17,1050,1610,5040,840,163,-366,-895
00:02:14.359,,-9,16,1046,1750,4690,630,168,-360,-900
00:02:14.378,,-4,10,1044,1470,4410,560,171,-361,-895
00:02:14.396,,-1,-1,1045,1470,4200,560,165,-361,-891
00:02:14.415,,-3,-2,1048,2800,4130,980,159,-363,-904
00:02:14.433,,-15,12,1044,3430,3780,1260,163,-361,-900
00:02:14.452,,-15,15,1049,2170,3080,980,168,-358,-903
00:02:14.471,,-9,10,1039,490,2450,-140,162,-358,-909
00:02:14.489,,-10,3,1032,-70,2030,-630,171,-357,-897
00:02:14.508,,-13,-1,1039,490,1330,-210,165,-355,-900
00:02:14.526,,-9,7,1039,1540,630,-280,162,-355,-900
00:02:14.545,,-7,9,1036,1260,70,-910,163,-363,-907
00:02:14.564,,-10,4,1033,210,-560,-1400,154,-357,-901
00:02:14.582,,-16,6,1031,-210,-840,-1260,160,-360,-906
00:02:14.601,,-22,7,1034,-980,-1400,-1330,160,-360,-906
00:02:14.619,,-26,9,1037,-1820,-2240,-1750,159,-354,-907
00:02:14.638,,-29,7,1050,-2660,-2940,-2380,160,-355,-894
00:02:14.657,,-18,-8,1057,-3290,-3780,-2940,163,-363,-904
00:02:14.675,,-13,-11,1057,-2380,-4340,-3220,169,-358,-901
00:02:14.694,,-7,-15,1065,-1820,-4830,-2800,160,-355,-913
00:02:14.712,,1,-17,1069,-2170,-5180,-2450,169,-363,-898
00:02:14.731,,4,-16,1081,-2240,-4970,-1890,168,-361,-895
00:02:14.749,,8,-14,1088,-1890,-4480,-1260,160,-363,-903
00:02:14.768,,8,-14,1088,-1890,-4480,-1260,159,-360,-904
00:02:14.787,,6,-2,1094,-630,-3640,-490,156,-366,-907
00:02:14.805,,6,9,1092,-140,-2590,-210,166,-363,-903
00:02:14.824,,1,6,1084,-490,-1540,-280,159,-363,-904
00:02:14.842,,1,-1,1085,-420,-770,-280,156,-369,-898
00:02:14.861,,0,-1,1078,140,-630,0,159,-355,-901
00:02:14.880,,1,1,1070,490,-630,210,165,-360,-904
00:02:14.898,,0,4,1072,490,-560,350,165,-367,-903
00:02:14.917,,1,4,1073,700,-560,490,156,-360,-909
00:02:14.935,,7,15,1066,840,70,420,159,-360,-901
00:02:14.954,,10,16,1059,-350,700,210,169,-360,-904
00:02:14.973,,8,13,1055,-1330,840,140,157,-358,-901
00:02:14.991,,4,21,1049,-560,630,210,148,-355,-906
00:02:15.010,,5,36,1050,-70,280,280,160,-367,-898
00:02:15.028,,6,40,1043,-840,-70,-350,156,-363,-901
00:02:15.047,,3,37,1048,-1330,-350,-1400,163,-355,-907
00:02:15.065,,2,28,1048,-1400,-980,-2240,160,-360,-913
00:02:15.084,,6,25,1050,-910,-1820,-2730,160,-361,-901
00:02:15.103,,9,24,1055,-630,-2170,-3010,162,-360,-907
00:02:15.121,,5,25,1062,-910,-2100,-3010,160,-361,-898
00:02:15.140,,8,22,1059,-1610,-1680,-3220,160,-360,-909
00:02:15.158,,10,16,1057,-2030,-980,-3430,151,-363,-904
00:02:15.177,,2,9,1051,-1890,-700,-3150,151,-363,-904
00:02:15.196,,-4,17,1055,-1190,-910,-2590,162,-369,-907
00:02:15.214,,-7,20,1059,-1610,-1680,-2730,157,-363,-904
00:02:15.233,,-4,13,1064,-2030,-2170,-3220,157,-360,-903
00:02:15.251,,-4,12,1069,-1540,-2030,-3220,156,-351,-907
00:02:15.270,,-5,14,1074,-1470,-1610,-2660,166,-361,-903
00:02:15.289,,-7,18,1076,-1750,-1050,-2380,157,-360,-903
00:02:15.307,,-3,11,1073,-2100,-560,-2450,160,-358,-901
00:02:15.326,,-8,11,1072,-1470,-70,-2100,154,-354,-910
00:02:15.344,,-11,16,1070,-1050,70,-1400,156,-369,-906
00:02:15.363,,-12,20,1068,-1260,140,-1330,157,-363,-903
00:02:15.382,,-13,11,1065,-1820,70,-1820,160,-361,-904
00:02:15.400,,-9,6,1067,-1540,-70,-1750,162,-364,-906
00:02:15.419,,-5,10,1063,-1330,-70,-1260,162,-358,-906
00:02:15.437,,0,10,1059,-1750,140,-840,160,-360,-906
00:02:15.456,,0,14,1052,-2030,630,-700,154,-358,-907
00:02:15.474,,-3,11,1046,-2240,910,-350,157,-355,-910
00:02:15.493,,-8,14,1040,-1960,840,70,156,-366,-907
00:02:15.512,,-18,25,1038,-1750,210,140,148,-358,-903
00:02:15.530,,-22,25,1046,-2100,-1120,-140,153,-358,-909
00:02:15.549,,-13,28,1059,-1540,-2240,-910,160,-357,-904
00:02:15.567,,-4,25,1065,-1540,-2660,-1680,157,-354,-903
00:02:15.586,,0,15,1071,-2310,-2170,-1750,148,-360,-904
00:02:15.605,,3,4,1070,-2590,-1540,-1470,148,-357,-904
00:02:15.623,,-1,11,1068,-1470,-1050,-910,157,-361,-903
00:02:15.642,,-3,22,1063,-1330,-910,-490,153,-360,-906
00:02:15.660,,-7,27,1063,-1820,-840,-490,157,-358,-904
00:02:15.679,,-2,30,1062,-2380,-840,-770,159,-355,-909
00:02:15.698,,1,29,1062,-2800,-840,-910,156,-363,-907
00:02:15.716,,2,28,1064,-2590,-770,-1330,154,-363,-906
00:02:15.735,,0,26,1064,-2170,-770,-1610,153,-363,-904
00:02:15.753,,-4,30,1067,-1540,-1050,-1610,156,-355,-901
00:02:15.772,,-6,35,1068,-1050,-1120,-1750,156,-355,-901
00:02:15.791,,-7,35,1074,-1260,-980,-2100,157,-357,-909
00:02:15.809,,-7,27,1078,-1400,-980,-2590,156,-358,-907
00:02:15.828,,-3,27,1077,-910,-840,-2730,159,-364,-904
00:02:15.832,<gest4_cross_right,,,,,,,,,
00:02:15.846,,2,25,1071,-980,-70,-2660,157,-361,-901
00:02:15.865,,0,19,1062,-1540,840,-2520,153,-367,-909
00:02:15.883,,-6,11,1053,-1680,1120,-2240,151,-364,-901
00:02:15.902,,-9,12,1050,-840,560,-1960,162,-363,-909
00:02:15.921,,-5,18,1044,-770,-280,-2100,153,-367,-907
00:02:15.939,,-7,16,1043,-1750,-490,-2100,156,-364,-904
00:02:15.958,,-10,8,1047,-2450,-630,-1610,156,-361,-907
00:02:15.976,,-13,17,1054,-1610,-1050,-1260,159,-351,-907
00:02:15.995,,-11,23,1057,-1330,-1540,-1330,156,-358,-907
00:02:16.014,,-7,24,1065,-2170,-1540,-1470,154,-363,-904
00:02:16.032,,0,21,1069,-2800,-1120,-1400,147,-360,-903
00:02:16.051,,-5,24,1071,-2520,-420,-980,147,-360,-907
00:02:16.069,,-7,28,1065,-2380,-70,-770,151,-355,-898
00:02:16.088,,-11,32,1062,-2030,-210,-1050,151,-361,-910
00:02:16.107,,-10,28,1061,-1750,-910,-1260,162,-357,-901
00:02:16.125,,-10,28,1061,-840,-980,-1190,153,-366,-909
00:02:16.144,,-9,38,1063,-840,-980,-1190,156,-358,-906
00:02:16.162,,-5,35,1062,-1260,-770,-1330,159,-358,-904
00:02:16.181,,-2,28,1062,-1680,-490,-1750,153,-357,-906
00:02:16.199,,-10,23,1055,-1470,-350,-1680,159,-361,-900
00:02:16.218,,-19,20,1058,-1050,-630,-1400,159,-360,-907
00:02:16.237,,-19,20,1063,-490,-1190,-1400,156,-361,-913
00:02:16.255,,-13,18,1063,-490,-1610,-1890,154,-361,-904
00:02:16.274,,-11,11,1061,-1330,-1120,-1680,160,-357,-913
00:02:16.292,,-13,3,1062,-1890,-770,-1050,156,-357,-906
00:02:16.311,,-17,7,1059,-910,-910,-560,151,-360,-910
00:02:16.330,,-17,19,1054,-490,-1190,-420,154,-358,-904
00:02:16.348,,-17,14,1065,-980,-1540,-280,154,-358,-904
00:02:16.367,,-10,11,1068,-420,-1890,-490,148,-355,-903
00:02:16.385,,-7,22,1071,980,-1820,-420,147,-363,-910
00:02:16.404,,-4,28,1071,350,-1610,-70,156,-349,-903
00:02:16.423,,-6,28,1068,-910,-840,420,153,-363,-903
00:02:16.441,,-5,35,1069,-980,-280,630,156,-364,-910
00:02:16.460,,0,40,1065,-490,0,700,154,-363,-910
00:02:16.478,,-4,52,1059,0,560,770,150,-358,-916
00:02:16.497,,-11,56,1052,-840,980,630,156,-367,-912
00:02:16.516,,-20,56,1049,-1400,700,140,151,-357,-904
00:02:16.534,,-21,59,1049,-1330,-140,-560,153,-364,-906
00:02:16.553,,-12,53,1054,-1470,-980,-1540,147,-352,-915
00:02:16.571,,-7,44,1053,-1750,-1330,-2590,147,-361,-912
00:02:16.590,,-6,34,1050,-1890,-1400,-2800,154,-358,-910
00:02:16.608,,-3,27,1049,-1750,-1540,-2450,156,-355,-913
00:02:16.627,,-4,31,1051,-1540,-1820,-1960,159,-352,-912
00:02:16.646,,-4,34,1059,-1890,-2170,-1540,148,-360,-912
00:02:16.664,,-4,38,1061,-2240,-2100,-1680,162,-358,-904
00:02:16.683,,-3,38,1060,-2590,-1680,-1960,162,-366,-915
00:02:16.701,,-7,37,1059,-2730,-1470,-1890,147,-366,-912
00:02:16.720,,-7,40,1059,-2520,-1540,-1750,153,-358,-912
00:02:16.739,,-1,42,1059,-2660,-1680,-1960,147,-363,-909
00:02:16.757,,-3,39,1055,-3150,-1400,-2100,156,-360,-906
00:02:16.776,,-8,39,1058,-3570,-1190,-1960,151,-352,-910
00:02:16.794,,-8,36,1061,-3780,-1400,-1750,154,-366,-912
00:02:16.813,,-10,41,1069,-3080,-1610,-1820,154,-364,-906
00:02:16.832,,-9,43,1073,-2800,-1680,-2240,150,-369,-916
00:02:16.850,,-11,42,1074,-2730,-1400,-2520,151,-357,-906
00:02:16.869,,-10,38,1079,-2660,-1050,-2730,154,-363,-904
00:02:16.887,,-8,35,1076,-2450,-840,-2730,144,-357,-910
00:02:16.906,,-8,35,1072,-2100,-420,-2520,156,-358,-903
00:02:16.925,,-13,34,1072,-2100,-70,-2380,151,-360,-910
00:02:16.943,,-15,29,1064,-1960,0,-2310,151,-360,-910
00:02:16.962,,-14,32,1058,-1540,-140,-2380,153,-364,-906
00:02:16.980,,-12,26,1046,-1890,-140,-2380,147,-357,-907
00:02:16.999,,-15,18,1044,-2100,-280,-2030,157,-372,-909
00:02:17.017,,-17,18,1040,-1750,-700,-1610,148,-360,-909
00:02:17.036,,-17,21,1043,-1680,-1260,-1400,154,-357,-898
00:02:17.055,,-19,20,1047,-2100,-1820,-1400,150,-364,-909
00:02:17.073,,-16,20,1052,-2310,-2170,-1260,150,-354,-916
00:02:17.092,,-14,23,1060,-2380,-2380,-910,160,-367,-909
00:02:17.110,,-7,26,1064,-2520,-2310,-770,150,-364,-910
00:02:17.129,,-5,25,1061,-2730,-1960,-840,160,-361,-900
00:02:17.148,,-9,22,1059,-3010,-1610,-420,151,-361,-901
00:02:17.166,,-18,25,1059,-2380,-1750,70,145,-357,-909
00:02:17.185,,-16,33,1064,-1820,-2170,140,148,-358,-909
00:02:17.203,,-9,37,1066,-1960,-2450,-280,153,-358,-916
00:02:17.222,,-3,34,1072,-2660,-2380,-770,163,-364,-906
00:02:17.241,,3,25,1078,-2800,-2310,-700,148,-355,-904
00:02:17.259,,4,37,1080,-1470,-1960,-350,151,-361,-904
00:02:17.278,,4,49,1076,-1330,-1260,-70,139,-357,-915
00:02:17.296,,6,47,1070,-2450,-350,-280,151,-358,-906
00:02:17.315,,2,45,1061,-2520,210,-700,154,-358,-903
00:02:17.333,,-3,40,1055,-2310,-70,-980,159,-358,-904
00:02:17.352,,-6,42,1056,-1610,-910,-1190,148,-357,-898
00:02:17.371,,-4,48,1052,-1260,-1610,-1820,156,-358,-909
00:02:17.389,,0,41,1053,-2030,-1820,-2380,157,-361,-907
00:02:17.408,,3,30,1055,-2590,-1610,-2450,147,-357,-909
00:02:17.426,,5,29,1057,-2030,-1540,-2170,156,-363,-912
00:02:17.445,,0,34,1058,-1680,-1540,-1750,150,-352,-903
00:02:17.464,,0,38,1062,-1960,-1540,-1750,145,-367,-907
00:02:17.482,,-4,38,1067,-2310,-1680,-1960,156,-364,-907
00:02:17.501,,-4,38,1067,-2310,-1680,-1960,154,-363,-906
00:02:17.519,,-1,34,1070,-2100,-1890,-2100,154,-363,-906
00:02:17.538,,-1,39,1074,-1330,-1750,-2100,153,-364,-907
00:02:17.557,,0,40,1072,-1330,-1260,-2030,159,-360,-906
00:02:17.575,,-3,40,1068,-1680,-700,-2030,156,-369,-901
00:02:17.594,,-8,41,1067,-1820,-490,-2030,145,-358,-912
00:02:17.612,,-7,39,1068,-1470,-840,-2310,154,-364,-903
00:02:17.631,,-3,40,1067,-1050,-1050,-2660,163,-357,-912
00:02:17.650,,-8,38,1073,-1190,-700,-2380,150,-364,-910
00:02:17.668,,-9,36,1076,-1610,-280,-2380,147,-364,-904
00:02:17.687,,-9,33,1072,-1470,70,-2520,151,-364,-910
00:02:17.705,,-8,30,1070,-1260,490,-2310,162,-367,-912
00:02:17.724,,-9,35,1061,-1330,910,-1820,145,-364,-907
00:02:17.742,,-13,39,1054,-1470,1190,-1610,147,-369,-913
00:02:17.761,,-19,41,1052,-1470,910,-1820,153,-361,-909
00:02:17.780,,-21,39,1051,-1470,70,-2170,159,-357,-913
00:02:17.798,,-12,36,1054,-1120,-770,-2520,144,-367,-906
00:02:17.817,,-3,31,1051,-1120,-1050,-2800,148,-372,-904
00:02:17.835,,-2,23,1042,-1820,-560,-2380,157,-369,-915
00:02:17.854,,-9,21,1043,-2030,0,-1330,153,-366,-910
00:02:17.873,,-14,28,1035,-1680,-350,-700,144,-352,-912
00:02:17.891,,-18,44,1038,-1260,-1050,-630,144,-352,-910
00:02:17.910,,-16,43,1042,-2100,-2240,-1050,154,-360,-915
00:02:17.928,,-13,44,1050,-2240,-2730,-1750,150,-358,-912
00:02:17.947,,-12,34,1057,-2660,-3220,-2030,148,-361,-907
00:02:17.966,,-7,27,1068,-2660,-3290,-1750,144,-363,-916
00:02:17.984,,-3,30,1076,-2240,-2870,-1050,150,-360,-912
00:02:18.003,,-2,38,1079,-2170,-2310,-770,151,-358,-904
00:02:18.021,,-5,43,1080,-2450,-1470,-700,153,-361,-912
00:02:18.040,,-3,43,1076,-2730,-910,-840,156,-361,-907
00:02:18.058,,-3,44,1075,-2380,-770,-840,153,-363,-912
00:02:18.077,,-3,47,1071,-1820,-840,-910,151,-363,-904
00:02:18.096,,-3,48,1067,-1400,-770,-1120,162,-360,-906
00:02:18.114,,-4,48,1059,-1470,-770,-1540,162,-360,-906
00:02:18.133,,-6,40,1058,-1960,-700,-1610,145,-367,-912
00:02:18.151,,-3,33,1054,-2030,-840,-1610,150,-361,-901
00:02:18.170,,-3,37,1052,-1610,-770,-1540,145,-357,-909
00:02:18.189,,-3,35,1052,-2100,-840,-1330,153,-361,-909
00:02:18.207,,-1,35,1049,-2170,-1120,-1330,147,-367,-907
00:02:18.226,,-6,40,1051,-1890,-1260,-1260,145,-361,-913
00:02:18.244,,-6,38,1056,-2100,-1750,-1330,151,-369,-907
00:02:18.263,,-5,43,1060,-1960,-2240,-1470,160,-363,-909
00:02:18.282,,-1,44,1069,-2030,-2240,-1470,148,-352,-907
00:02:18.300,,1,43,1074,-2450,-1890,-1680,150,-364,-913
00:02:18.319,,-1,46,1076,-2450,-1330,-1540,153,-367,-906
00:02:18.337,,-7,48,1080,-2030,-910,-1190,151,-367,-910
00:02:18.356,,-3,51,1075,-1470,-630,-1400,150,-364,-909
00:02:18.375,,-2,51,1071,-1330,-70,-1750,153,-361,-906
00:02:18.393,,-5,45,1064,-1680,280,-1960,154,-364,-912
00:02:18.412,,-9,47,1057,-1610,420,-2030,150,-364,-907
00:02:18.430,,-13,44,1057,-1610,140,-2100,151,-366,-906
00:02:18.449,,-14,39,1053,-1470,-350,-2380,147,-361,-915
00:02:18.468,,-14,36,1056,-980,-980,-2380,153,-369,-904
00:02:18.486,,-11,33,1056,-840,-1400,-2310,151,-355,-906
00:02:18.505,,-7,35,1057,-1260,-1190,-2170,147,-364,-907
00:02:18.523,,-5,29,1058,-2030,-700,-1820,154,-367,-907
00:02:18.542,,-7,34,1059,-2100,-280,-1260,147,-370,-915
00:02:18.560,,-9,41,1058,-2170,-350,-840,156,-360,-910
00:02:18.579,,-12,48,1057,-2380,-490,-1050,148,-363,-916
00:02:18.598,,-12,45,1050,-2450,-630,-1400,144,-357,-907
00:02:18.616,,-12,43,1050,-2240,-770,-1400,145,-366,-912
00:02:18.635,,-11,40,1048,-2240,-1190,-1400,148,-361,-909
00:02:18.653,,-8,39,1053,-2240,-1680,-1400,150,-363,-909
00:02:18.672,,-3,38,1055,-2450,-1960,-1400,151,-370,-910
00:02:18.691,,0,36,1057,-2800,-1960,-1400,151,-370,-910
00:02:18.709,,0,34,1056,-2730,-1820,-1190,148,-358,-912
00:02:18.728,,-10,45,1057,-2380,-1610,-770,144,-355,-915
00:02:18.746,,-9,45,1060,-2590,-1890,-630,154,-358,-912
00:02:18.765,,-8,50,1065,-2240,-2170,-1190,144,-366,-909
00:02:18.784,,-4,48,1069,-2520,-2450,-1610,159,-360,-912
00:02:18.802,,0,42,1073,-3150,-2310,-1610,151,-361,-915
00:02:18.821,,3,40,1079,-2940,-1820,-1190,153,-363,-907
00:02:18.839,,1,45,1076,-2450,-1120,-910,148,-358,-915
00:02:18.858,,1,45,1076,-2450,-1120,-910,147,-361,-910
00:02:18.877,,-2,52,1074,-2170,-490,-840,150,-357,-909
00:02:18.895,,-7,56,1067,-2310,-140,-980,151,-366,-907
00:02:18.914,,-13,54,1063,-2170,-210,-1330,156,-361,-913
00:02:18.932,,-12,53,1062,-1190,-700,-1890,151,-360,-915
00:02:18.951,,-6,51,1060,-560,-1190,-2520,154,-364,-916
00:02:18.970,,-1,42,1057,-1120,-1470,-2800,148,-363,-913
00:02:18.988,,0,36,1053,-1960,-1190,-2520,147,-364,-903
00:02:19.007,,-2,36,1058,-2310,-700,-1820,145,-361,-906
00:02:19.025,,-6,35,1057,-2520,-420,-1400,150,-366,-909
00:02:19.044,,-5,44,1060,-2310,-490,-1400,159,-361,-904
00:02:19.062,,-6,45,1054,-2590,-700,-1680,145,-360,-910
00:02:19.081,,-3,44,1054,-2870,-980,-2170,147,-361,-916
00:02:19.100,,-6,40,1053,-2800,-1330,-2240,148,-364,-909
00:02:19.118,,-8,39,1058,-1960,-1820,-2100,144,-358,-906
00:02:19.137,,-11,47,1060,-1400,-1890,-1960,142,-369,-907
00:02:19.155,,-10,46,1063,-1960,-1890,-1960,151,-370,-910
00:02:19.174,,-7,41,1067,-2380,-1680,-2030,147,-370,-910
00:02:19.193,,0,37,1067,-2100,-1540,-2030,147,-360,-907
00:02:19.211,,2,34,1064,-1750,-1400,-1960,145,-363,-910
00:02:19.230,,0,35,1059,-1750,-1050,-1470,150,-363,-910
00:02:19.248,,-9,37,1062,-2170,-1120,-980,150,-369,-912
00:02:19.267,,-8,41,1062,-2100,-1260,-1050,148,-360,-910
00:02:19.286,,-10,48,1055,-2590,-910,-1400,148,-360,-910
00:02:19.304,,-9,37,1055,-3990,-630,-1400,153,-367,-903
00:02:19.323,,-8,36,1052,-3570,-770,-1050,145,-366,-904
00:02:19.341,,-11,46,1054,-2660,-1400,-1050,156,-360,-903
00:02:19.360,,-7,44,1058,-2730,-2310,-1400,150,-366,-910
00:02:19.378,,-1,45,1063,-2730,-2660,-1680,141,-366,-912
00:02:19.397,,1,43,1077,-2520,-2520,-1470,144,-361,-907
00:02:19.416,,2,48,1076,-2100,-1960,-1400,154,-364,-910
00:02:19.434,,0,50,1079,-1680,-1330,-1400,148,-364,-915
00:02:19.453,,0,49,1068,-1750,-910,-1610,144,-370,-904
00:02:19.471,,-1,50,1064,-1750,-630,-1680,147,-366,-909
00:02:19.490,,-2,50,1055,-2100,-350,-1750,150,-369,-921
00:02:19.509,,-3,46,1056,-2660,-420,-1890,150,-366,-903
00:02:19.527,,-3,43,1057,-2940,-840,-2170,147,-364,-909
00:02:19.546,,0,43,1059,-2730,-1050,-2380,151,-363,-910
00:02:19.564,,1,43,1054,-2870,-1120,-2380,154,-369,-910
00:02:19.583,,-2,43,1052,-2800,-910,-2310,147,-366,-907
00:02:19.602,,-8,43,1056,-2590,-980,-2240,145,-364,-907
00:02:19.620,,-8,43,1061,-2380,-1610,-2520,148,-366,-910
00:02:19.639,,-3,39,1062,-2450,-2170,-2940,147,-364,-910
00:02:19.657,,-2,31,1063,-2520,-2170,-2870,144,-366,-910
00:02:19.676,,-2,27,1070,-1890,-1960,-2310,153,-366,-909
00:02:19.695,,-5,33,1076,-1050,-1750,-1610,141,-358,-912
00:02:19.713,,-12,39,1079,-1050,-1470,-1540,148,-367,-909
00:02:19.732,,-14,28,1079,-1750,-1470,-1890,142,-367,-909
00:02:19.750,,-8,23,1080,-1330,-1470,-2030,145,-367,-915
00:02:19.769,,-3,21,1088,-700,-1260,-1330,147,-364,-904
00:02:19.787,,3,24,1086,-560,-630,-840,148,-363,-904
00:02:19.806,,2,30,1081,-1050,700,-350,144,-367,-910
00:02:19.825,,4,31,1070,-1680,1610,140,147,-367,-915
00:02:19.843,,-4,45,1060,-1050,2240,630,145,-367,-913
00:02:19.862,,-11,54,1051,-980,2100,910,145,-367,-913
00:02:19.880,,-10,56,1047,-980,1330,420,147,-367,-916
00:02:19.899,,-3,61,1044,-910,560,-420,156,-363,-907
00:02:19.918,,1,57,1040,-1330,0,-910,138,-360,-913
00:02:19.936,,0,58,1039,-1260,-70,-1050,145,-367,-915
00:02:19.955,,-1,61,1044,-1400,-280,-980,144,-361,-919
00:02:19.973,,-3,63,1044,-1890,-700,-1330,141,-352,-913
00:02:19.992,,-5,65,1048,-2310,-980,-1750,151,-367,-907
00:02:20.011,,-5,60,1047,-2520,-1260,-2240,145,-357,-915
00:02:20.029,,-10,61,1052,-1610,-1540,-2660,150,-357,-913
00:02:20.048,,-13,60,1054,-980,-2240,-3150,147,-358,-909
00:02:20.066,,-9,58,1058,-1330,-2730,-3710,148,-367,-913
00:02:20.085,,0,42,1061,-2520,-2660,-3990,142,-367,-912
00:02:20.104,,1,27,1068,-2730,-2100,-3710,141,-358,-910
00:02:20.122,,-1,25,1066,-2100,-1680,-3010,148,-366,-907
00:02:20.141,,-8,36,1068,-1680,-1400,-2100,144,-364,-916
00:02:20.159,,-10,40,1064,-2450,-1330,-1680,148,-366,-910
00:02:20.178,,-16,44,1068,-2590,-1190,-1820,145,-375,-906
00:02:20.196,,-14,45,1069,-2520,-1260,-1820,148,-367,-906
00:02:20.215,,-14,45,1069,-2450,-1190,-1890,142,-366,-915
00:02:20.234,,-11,45,1064,-2450,-1190,-1890,150,-370,-915
00:02:20.252,,-10,37,1065,-2520,-840,-1750,141,-367,-918
00:02:20.271,,-10,33,1063,-2310,-770,-1540,142,-361,-907
00:02:20.289,,-9,41,1061,-1610,-910,-1190,150,-364,-913
00:02:20.308,,-10,45,1060,-1750,-1120,-980,138,-373,-919
00:02:20.327,,-4,45,1058,-2100,-1120,-980,136,-369,-912
00:02:20.345,,-1,46,1055,-2240,-840,-840,142,-369,-913
00:02:20.364,,2,46,1051,-2660,-630,-490,151,-366,-912
00:02:20.382,,-1,54,1050,-2520,-560,-280,148,-367,-916
00:02:20.401,,-8,58,1052,-2590,-910,-490,150,-366,-909
00:02:20.420,,-8,61,1056,-2240,-1750,-1190,145,-367,-916
00:02:20.438,,-1,64,1059,-1540,-2660,-1960,142,-375,-916
00:02:20.457,,6,65,1064,-1540,-3010,-2520,142,-375,-916
00:02:20.475,,9,60,1070,-2170,-2520,-2660,144,-372,-910
00:02:20.494,,6,58,1070,-2590,-1610,-2730,141,-364,-907
00:02:20.513,,1,55,1073,-2870,-700,-2520,145,-373,-909
00:02:20.531,,-3,51,1069,-3010,-420,-2520,148,-370,-909
00:02:20.550,,-11,54,1065,-2380,-420,-2590,144,-369,-910
