Sensors' Acquisition [Hz]: Acc@52.0 Gyro@52.0 Mag@52.0 
hh:mm:ss.ms, Annotation , AccX [mg], AccY, AccZ, GyroX [mdps], GyroY, GyroZ, MagX [mgauss], MagY, MagZ
13:16:18.367,,-34,-40,1049,350,-280,-70,382,34,-121
13:16:18.386,,-34,-36,1049,420,-420,-140,382,40,-120
13:16:18.405,,-34,-38,1049,210,-490,-420,379,40,-112
13:16:18.424,,-32,-37,1050,420,-700,-560,376,39,-117
13:16:18.443,,-33,-35,1051,420,-700,-630,379,31,-115
13:16:18.461,,-31,-38,1052,140,-700,-910,375,36,-118
13:16:18.480,,-31,-38,1052,280,-840,-1260,381,36,-115
13:16:18.499,,-30,-41,1054,420,-1050,-1470,385,33,-117
13:16:18.518,,-31,-45,1057,420,-1190,-1400,382,39,-120
13:16:18.537,,-34,-47,1060,560,-1120,-980,382,36,-114
13:16:18.555,,-35,-45,1061,700,-980,-770,369,40,-121
13:16:18.574,,-39,-43,1058,1050,-910,-630,388,42,-121
13:16:18.593,,-39,-43,1055,1050,-700,-490,382,42,-120
13:16:18.612,,-40,-47,1054,630,-420,-140,379,40,-124
13:16:18.631,,-44,-49,1049,490,-280,210,382,37,-121
13:16:18.649,,-49,-49,1046,630,-350,630,382,36,-120
13:16:18.668,,-50,-48,1047,910,-840,910,382,30,-121
13:16:18.687,,-47,-46,1046,1190,-1120,1190,379,37,-123
13:16:18.706,,-42,-42,1049,1120,-980,1330,381,37,-117
13:16:18.725,,-43,-43,1050,280,-560,1540,384,42,-115
13:16:18.743,,-45,-44,1051,-70,-210,1750,387,42,-115
13:16:18.762,,-45,-39,1053,210,-280,1680,381,31,-117
13:16:18.781,,-42,-35,1053,210,-420,1470,379,39,-118
13:16:18.800,,-37,-37,1056,-140,-420,1260,384,39,-123
13:16:18.819,,-34,-37,1056,-420,-210,1120,385,39,-117
13:16:18.837,,-32,-37,1056,-420,-70,1050,382,37,-115
13:16:18.856,,-33,-35,1054,-280,-210,1050,382,37,-115
13:16:18.875,,-33,-31,1052,0,-350,910,379,42,-115
13:16:18.894,,-34,-28,1053,140,-630,700,378,37,-121
13:16:18.913,,-32,-29,1053,140,-840,350,379,34,-118
13:16:18.931,,-30,-30,1053,280,-840,-70,387,37,-121
13:16:18.950,,-28,-33,1050,140,-770,-280,378,37,-115
13:16:18.969,,-27,-35,1046,-140,-490,-350,384,36,-121
13:16:18.988,,-27,-34,1047,-350,-420,-350,376,39,-117
13:16:19.007,,-31,-34,1044,-560,-490,-350,384,42,-121
13:16:19.025,,-34,-32,1047,-420,-770,-490,375,40,-117
13:16:19.044,,-37,-30,1046,-350,-1120,-630,382,34,-126
13:16:19.063,,-37,-28,1044,-280,-1540,-770,379,42,-117
13:16:19.082,,-37,-26,1047,-210,-1750,-910,384,40,-120
13:16:19.101,,-38,-27,1050,-490,-1820,-1260,379,37,-114
13:16:19.119,,-37,-36,1057,-770,-1890,-1540,385,33,-123
13:16:19.138,,-38,-41,1060,-350,-1960,-1680,375,36,-117
13:16:19.157,,-35,-44,1065,-210,-1890,-1540,376,45,-114
13:16:19.176,,-33,-47,1062,-210,-1470,-1190,393,43,-111
13:16:19.195,,-35,-42,1062,-70,-840,-770,376,42,-118
13:16:19.213,,-36,-41,1058,-420,-210,-630,387,37,-115
13:16:19.232,,-38,-39,1051,-560,210,-490,384,36,-118
13:16:19.251,,-38,-36,1046,-560,280,-560,384,39,-120
13:16:19.270,,-41,-39,1043,-630,-70,-560,378,40,-114
13:16:19.289,,-41,-39,1042,-350,-630,-630,381,39,-123
13:16:19.307,,-40,-35,1042,-210,-1120,-490,372,42,-114
13:16:19.326,,-38,-37,1044,-560,-1470,-420,379,34,-118
13:16:19.345,,-37,-37,1044,-770,-1540,-560,381,39,-114
13:16:19.364,,-36,-38,1045,-980,-1680,-700,382,42,-117
13:16:19.383,,-37,-41,1049,-1120,-1960,-700,382,37,-117
13:16:19.401,,-37,-39,1050,-980,-2170,-630,381,40,-124
13:16:19.420,,-37,-36,1055,-1050,-2170,-560,375,34,-111
13:16:19.439,,-37,-39,1059,-1330,-2100,-560,385,43,-118
13:16:19.458,,-38,-39,1060,-1260,-1890,-630,381,36,-118
13:16:19.477,,-38,-40,1061,-980,-1820,-560,379,33,-118
13:16:19.495,,-39,-40,1062,-980,-1680,-420,385,42,-118
13:16:19.514,,-37,-43,1059,-910,-1540,-280,379,40,-112
13:16:19.533,,-34,-41,1060,-630,-1400,-210,376,37,-114
13:16:19.552,,-32,-44,1057,-840,-1190,-140,373,36,-120
13:16:19.571,,-32,-43,1057,-910,-910,70,382,37,-117
13:16:19.589,,-32,-40,1057,-980,-700,280,385,40,-112
13:16:19.608,,-33,-38,1055,-910,-560,280,375,39,-124
13:16:19.627,,-29,-36,1053,-700,-630,0,381,40,-118
13:16:19.646,,-29,-37,1051,-840,-630,-70,378,46,-111
13:16:19.665,,-29,-37,1052,-910,-840,-140,381,37,-111
13:16:19.683,,-29,-42,1052,-910,-840,-140,382,40,-118
13:16:19.702,,-29,-38,1050,-490,-1120,-140,385,40,-118
13:16:19.721,,-28,-34,1050,-420,-1260,-140,373,42,-114
13:16:19.740,,-28,-34,1051,-770,-1120,-210,381,42,-114
13:16:19.759,,-27,-37,1052,-980,-980,-560,387,39,-112
13:16:19.777,,-25,-40,1056,-980,-1050,-910,379,45,-115
13:16:19.796,,-26,-44,1056,-910,-1050,-1050,381,31,-117
13:16:19.815,,-28,-45,1059,-700,-1190,-910,379,43,-114
13:16:19.834,,-28,-42,1059,-420,-1050,-840,379,46,-117
13:16:19.853,,-29,-39,1059,-420,-770,-840,384,31,-111
13:16:19.871,,-29,-41,1060,-490,-490,-980,384,31,-111
13:16:19.890,,-30,-42,1057,-490,-280,-1120,376,43,-105
13:16:19.909,,-32,-43,1054,-490,-140,-1050,384,39,-111
13:16:19.928,,-33,-47,1051,-420,-210,-980,384,39,-121
13:16:19.947,,-33,-45,1051,-70,-490,-840,378,39,-111
13:16:19.965,,-35,-42,1048,-70,-560,-630,378,37,-129
13:16:19.984,,-35,-44,1051,-350,-630,-490,384,36,-114
13:16:20.003,,-36,-41,1051,-420,-630,-490,373,40,-109
13:16:20.022,,-38,-42,1049,-420,-630,-560,381,37,-118
13:16:20.040,,-37,-45,1052,-560,-700,-560,390,36,-112
13:16:20.059,,-38,-47,1054,-420,-840,-420,378,31,-120
13:16:20.078,,-35,-49,1055,-490,-840,-140,385,46,-117
13:16:20.097,,-34,-50,1058,-700,-490,280,390,37,-123
13:16:20.116,,-36,-53,1058,-1050,-70,700,378,40,-120
13:16:20.134,,-38,-55,1057,-1260,210,1120,379,37,-109
13:16:20.146,>gest2_circle_ccw,,,,,,,,,
13:16:20.153,,-36,-60,1058,-1050,210,1610,375,42,-115
13:16:20.172,,-34,-67,1057,-420,140,2240,378,48,-118
13:16:20.191,,-37,-66,1057,70,280,3150,382,43,-123
13:16:20.210,,-40,-59,1054,210,280,3850,375,43,-121
13:16:20.228,,-40,-54,1053,350,280,4410,369,45,-109
13:16:20.247,,-41,-47,1052,420,420,4620,376,40,-118
13:16:20.266,,-41,-45,1053,140,560,4690,379,48,-108
13:16:20.285,,-40,-42,1048,70,420,4620,384,43,-115
13:16:20.304,,-40,-34,1047,-70,350,4480,375,49,-114
13:16:20.323,,-38,-30,1045,-490,140,4130,382,49,-109
13:16:20.341,,-39,-28,1045,-770,-140,3780,378,51,-112
13:16:20.360,,-38,-24,1042,-560,-700,3150,381,46,-115
13:16:20.379,,-36,-18,1035,-700,-1330,2380,387,43,-115
13:16:20.398,,-33,-21,1034,-1470,-1960,1540,382,48,-115
13:16:20.417,,-26,-24,1032,-1820,-2800,490,379,51,-111
13:16:20.435,,-19,-19,1026,-1960,-3570,-630,379,45,-114
13:16:20.454,,-12,-12,1022,-2800,-4270,-1750,382,49,-112
13:16:20.473,,-2,0,1010,-3850,-5180,-3360,388,42,-117
13:16:20.492,,4,37,987,-5110,-6580,-5880,379,46,-109
13:16:20.511,,12,69,965,-9450,-9380,-8610,385,45,-118
13:16:20.529,,34,118,947,-12040,-14980,-11480,387,37,-106
13:16:20.548,,43,211,962,-9660,-21980,-13650,379,37,-112
13:16:20.567,,71,302,989,-6930,-31010,-18900,381,40,-114
13:16:20.586,,110,384,1049,-1050,-39550,-29960,376,31,-120
13:16:20.604,,154,445,1115,6720,-45500,-44520,378,24,-114
13:16:20.623,,208,433,1222,5460,-47670,-62860,376,13,-118
13:16:20.642,,272,386,1324,-8470,-46830,-84210,378,6,-115
13:16:20.661,,289,272,1480,-20300,-38360,-102060,382,-10,-109
13:16:20.680,,291,122,1603,-18480,-25340,-113890,370,-10,-117
13:16:20.698,,265,45,1632,-8470,-9450,-121240,381,-22,-112
13:16:20.717,,250,-15,1636,-8540,6580,-124320,373,-36,-106
13:16:20.736,,242,-150,1638,-16310,23170,-121800,378,-46,-108
13:16:20.755,,228,-313,1608,-18970,38080,-117180,375,-52,-108
13:16:20.774,,222,-447,1559,-8750,50960,-111020,364,-64,-105
13:16:20.792,,187,-493,1475,6510,63840,-101640,361,-67,-121
13:16:20.811,,149,-496,1368,14210,77840,-86660,354,-63,-120
13:16:20.830,,102,-547,1341,11270,93590,-66570,361,-70,-123
13:16:20.849,,26,-572,1319,6860,106610,-43960,358,-66,-132
13:16:20.868,,14,-656,1196,4410,116690,-28350,357,-72,-145
13:16:20.887,,-83,-616,1128,12950,124810,-9310,361,-75,-145
13:16:20.905,,-119,-622,1064,20230,129010,7420,361,-75,-145
13:16:20.924,,-123,-616,975,28700,130060,25340,361,-58,-147
13:16:20.943,,-139,-581,871,33880,130410,42420,352,-49,-159
13:16:20.962,,-127,-549,740,30310,129220,59150,352,-39,-169
13:16:20.981,,-135,-493,622,23870,127120,79100,354,-31,-165
13:16:20.999,,-220,-448,521,15050,125510,92750,355,-16,-168
13:16:21.018,,-154,-409,391,8610,118370,103880,354,-4,-171
13:16:21.037,,-205,-338,282,8680,109900,121660,363,6,-171
13:16:21.056,,-242,-217,222,8120,98980,131670,364,30,-180
13:16:21.074,,-263,-107,163,2660,86590,141120,363,49,-177
13:16:21.093,,-312,11,140,-4620,71540,151200,363,58,-177
13:16:21.112,,-327,90,154,-12320,52430,159250,367,76,-178
13:16:21.131,,-320,155,183,-17990,33110,163450,354,90,-181
13:16:21.150,,-320,251,244,-21770,14560,162330,355,105,-175
13:16:21.168,,-299,367,313,-27370,-3010,156800,343,121,-169
13:16:21.187,,-296,457,361,-39340,-17990,149380,345,130,-160
13:16:21.206,,-289,502,401,-56140,-31150,138740,343,127,-160
13:16:21.225,,-281,542,507,-71190,-44940,124740,337,144,-138
13:16:21.244,,-246,527,651,-80850,-59150,108360,330,156,-154
13:16:21.263,,-215,541,784,-80850,-72520,88480,333,156,-148
13:16:21.281,,-152,554,842,-74480,-83510,65450,334,159,-136
13:16:21.300,,-89,573,868,-66710,-91560,39970,336,160,-139
13:16:21.319,,-23,581,940,-61740,-95760,15120,342,154,-138
13:16:21.338,,35,567,1057,-59710,-98350,-6860,343,151,-144
13:16:21.357,,92,510,1170,-57960,-99960,-27300,342,141,-138
13:16:21.375,,135,472,1236,-53060,-100170,-47040,358,139,-132
13:16:21.394,,155,440,1296,-47110,-98490,-63560,360,130,-133
13:16:21.413,,172,404,1330,-45150,-95200,-76230,358,115,-133
13:16:21.432,,158,359,1352,-47460,-88480,-85120,361,114,-130
13:16:21.451,,171,278,1382,-51450,-81410,-90440,357,106,-129
13:16:21.469,,171,278,1382,-52430,-75600,-91840,372,90,-123
13:16:21.488,,160,195,1408,-52430,-75600,-91840,381,76,-121
13:16:21.507,,128,142,1407,-48230,-70980,-93520,375,73,-120
13:16:21.526,,114,94,1374,-40740,-67200,-96810,387,64,-126
13:16:21.544,,97,70,1328,-30100,-62930,-98700,384,48,-123
13:16:21.563,,111,37,1311,-20440,-57260,-98210,381,46,-121
13:16:21.582,,134,-17,1325,-17500,-49770,-97580,381,40,-118
13:16:21.601,,143,-123,1333,-17920,-41510,-96320,381,25,-120
13:16:21.620,,138,-191,1325,-14210,-33390,-93170,382,16,-118
13:16:21.638,,122,-207,1301,-8680,-24290,-87080,373,10,-114
13:16:21.657,,108,-235,1288,-7210,-14210,-78540,375,3,-123
13:16:21.676,,85,-253,1261,-9240,-3920,-69650,384,-6,-120
13:16:21.695,,66,-286,1229,-10150,5740,-61040,381,-4,-114
13:16:21.714,,56,-288,1193,-8750,13160,-53620,375,-15,-121
13:16:21.732,,34,-290,1162,-5460,19110,-45430,378,-13,-121
13:16:21.751,,23,-292,1128,-3570,22540,-37870,373,-16,-123
13:16:21.770,,15,-276,1086,-1960,24150,-30170,373,-10,-120
13:16:21.789,,6,-257,1045,-350,24990,-22120,367,-21,-121
13:16:21.808,,-1,-230,1005,210,25200,-14630,375,-16,-126
13:16:21.826,,-12,-200,979,-280,24640,-8050,373,-13,-124
13:16:21.845,,-18,-183,949,-1890,22960,-2730,366,-16,-123
13:16:21.864,,-26,-174,927,-2450,20510,1890,373,-15,-123
13:16:21.883,,-30,-155,925,-1750,16730,6090,375,-12,-124
13:16:21.902,,-32,-125,934,-350,11900,9660,375,-18,-117
13:16:21.920,,-27,-89,949,1260,7000,12110,378,-6,-127
13:16:21.939,,-15,-48,977,2030,3150,13510,378,-6,-127
13:16:21.958,,-7,-17,1001,1610,1540,13440,372,-13,-127
13:16:21.977,,0,3,1019,70,1610,12320,379,-13,-120
13:16:21.996,,-3,7,1037,-2380,2660,11200,375,-15,-127
13:16:22.014,,-7,-2,1044,-4480,3150,10220,379,-9,-124
13:16:22.033,,-8,-8,1049,-4550,2660,9590,375,-4,-124
13:16:22.052,,-7,-8,1051,-3430,1470,9100,384,-4,-117
13:16:22.071,,-9,-6,1050,-2520,70,8750,384,-9,-124
13:16:22.090,,-10,-8,1058,-1680,-1470,8610,384,-1,-114
13:16:22.108,,-12,-5,1064,-420,-2870,8470,385,-6,-121
13:16:22.127,,-8,1,1073,980,-3710,8120,372,3,-121
13:16:22.146,,-1,9,1075,1610,-3990,7350,379,0,-121
13:16:22.165,,0,11,1071,1540,-3220,6440,372,1,-114
13:16:22.184,,-4,9,1069,910,-2170,5670,381,1,-121
13:16:22.202,,-3,0,1072,630,-1190,5110,384,-3,-118
13:16:22.221,,-2,-2,1071,630,-350,4340,379,0,-112
13:16:22.240,,-1,-8,1065,350,210,3570,379,10,-123
13:16:22.259,,-2,-13,1058,70,630,2940,379,3,-129
13:16:22.278,,-5,-17,1051,210,770,2800,382,6,-126
13:16:22.296,,-5,-15,1045,490,630,2660,373,-1,-123
13:16:22.315,,-3,-13,1040,280,420,2450,379,-3,-126
13:16:22.334,,-2,-14,1044,-70,140,2100,373,1,-120
13:16:22.353,,-5,-14,1042,-280,-350,1190,379,3,-129
13:16:22.372,,-6,-12,1040,-210,-770,420,381,-1,-123
13:16:22.390,,-7,-12,1034,-910,-1120,-490,379,0,-120
13:16:22.409,,-4,-19,1032,-1680,-1330,-1120,367,3,-126
13:16:22.428,,0,-31,1043,-1890,-1540,-1610,375,1,-121
13:16:22.447,,0,-37,1053,-1610,-1890,-1960,382,1,-123
13:16:22.466,,0,-42,1052,-1330,-2240,-1890,378,-3,-120
13:16:22.484,,-1,-41,1050,-1260,-2240,-1470,372,-3,-124
13:16:22.503,,-5,-41,1054,-1470,-2030,-770,381,1,-126
13:16:22.522,,-10,-42,1063,-1540,-1680,-140,379,-1,-120
13:16:22.541,,-10,-37,1067,-1190,-1610,-140,375,-3,-117
13:16:22.560,,-12,-37,1067,-910,-1540,-420,379,1,-118
13:16:22.578,,-15,-36,1066,-770,-1330,-490,375,6,-121
13:16:22.597,,-19,-34,1067,-770,-1050,-350,372,-3,-129
13:16:22.616,,-18,-34,1066,-560,-980,-280,379,6,-126
13:16:22.635,,-16,-31,1068,-210,-770,-350,390,6,-118
13:16:22.654,,-15,-31,1066,-280,-420,-420,378,1,-117
13:16:22.672,,-15,-31,1061,-560,70,-420,378,1,-124
13:16:22.691,,-15,-36,1062,-770,420,-210,381,3,-120
13:16:22.710,,-17,-39,1057,-630,350,-140,376,3,-118
13:16:22.729,,-14,-40,1055,140,-70,210,381,6,-124
13:16:22.748,,-11,-35,1055,560,-350,560,379,1,-114
13:16:22.766,,-8,-35,1052,420,-70,1120,382,-1,-129
13:16:22.785,,-8,-31,1056,140,490,1260,372,-1,-120
13:16:22.804,,-7,-32,1050,-350,910,1190,381,-4,-121
13:16:22.823,,-9,-29,1043,-420,1050,910,381,6,-124
13:16:22.842,,-11,-29,1040,-770,980,910,375,0,-118
13:16:22.860,,-16,-32,1043,-910,560,1120,378,-3,-123
13:16:22.879,,-16,-28,1044,-280,-560,910,381,6,-126
13:16:22.898,,-14,-19,1042,210,-1470,560,375,-4,-120
13:16:22.917,,-7,-17,1043,-140,-1890,140,382,6,-127
13:16:22.936,,-2,-21,1049,-910,-1610,-210,378,1,-126
13:16:22.954,,-3,-29,1053,-1400,-1260,-560,378,-3,-117
13:16:22.973,,-6,-32,1054,-1260,-1260,-770,378,-3,-117
13:16:22.992,,-9,-33,1051,-980,-1540,-700,372,-3,-121
13:16:23.011,,-8,-34,1053,-840,-1680,-560,382,6,-115
13:16:23.030,,-9,-33,1056,-840,-1610,-420,379,-1,-120
13:16:23.048,,-6,-35,1058,-840,-1470,-350,381,0,-115
13:16:23.067,,-5,-35,1058,-770,-1330,-350,373,7,-117
13:16:23.086,,-5,-33,1056,-630,-1120,-350,373,1,-120
13:16:23.105,,-8,-32,1052,-840,-910,-420,372,7,-115
13:16:23.124,,-12,-34,1052,-770,-910,-490,384,4,-118
13:16:23.142,,-12,-33,1052,-630,-1120,-420,379,3,-127
13:16:23.161,,-10,-33,1049,-700,-1330,-350,381,3,-121
13:16:23.180,,-10,-32,1050,-840,-1400,-280,375,0,-115
13:16:23.199,,-9,-37,1054,-840,-1470,-280,388,7,-115
13:16:23.218,,-7,-37,1056,-560,-1610,-350,379,0,-112
13:16:23.236,,-6,-35,1057,-350,-1540,-420,387,6,-120
13:16:23.255,,-6,-37,1056,-700,-1400,-490,376,4,-115
13:16:23.274,,-6,-37,1056,-980,-1120,-350,387,9,-121
13:16:23.293,,-9,-39,1058,-980,-1120,-350,385,7,-117
13:16:23.312,,-11,-39,1055,-980,-1120,-140,376,-1,-121
13:16:23.330,,-11,-38,1058,-630,-1190,70,381,4,-117
13:16:23.349,,-12,-35,1059,-560,-1330,70,379,7,-130
13:16:23.368,,-11,-32,1056,-280,-1470,70,382,9,-118
13:16:23.387,,-9,-30,1057,-140,-1400,-70,378,-1,-118
13:16:23.406,,-5,-34,1055,-700,-1120,-280,375,3,-120
13:16:23.424,,-4,-38,1055,-770,-770,-350,381,3,-126
13:16:23.443,,-5,-39,1052,-840,-700,-420,384,-7,-117
13:16:23.462,,-6,-39,1050,-770,-840,-210,382,1,-117
13:16:23.481,,-7,-36,1049,-630,-1190,-70,381,0,-118
13:16:23.500,,-7,-33,1050,-630,-1470,140,376,1,-115
13:16:23.518,,-7,-32,1051,-910,-1680,0,375,-1,-118
13:16:23.537,,-5,-33,1053,-1260,-1820,-210,375,6,-120
13:16:23.556,,-3,-36,1055,-1120,-1820,-280,375,0,-114
13:16:23.575,,-2,-35,1059,-700,-1820,-280,370,1,-112
13:16:23.594,,-1,-36,1059,-560,-1750,-350,378,-1,-118
13:16:23.612,,-2,-37,1060,-490,-1610,-350,375,7,-118
13:16:23.631,,-4,-36,1063,-560,-1400,-140,378,3,-120
13:16:23.650,,-4,-39,1061,-490,-1260,-140,375,1,-124
13:16:23.669,,-3,-36,1063,-70,-980,-210,387,6,-115
13:16:23.688,,-3,-39,1059,-70,-700,-280,382,1,-118
13:16:23.706,,-3,-42,1056,-280,-420,-280,382,9,-124
13:16:23.725,,-4,-44,1059,-210,-70,0,379,1,-120
13:16:23.744,,-7,-42,1056,-140,-70,420,376,1,-129
13:16:23.763,,-6,-38,1055,210,-350,700,378,4,-115
13:16:23.782,,-5,-33,1050,490,-490,630,379,0,-117
13:16:23.800,,-4,-29,1049,280,-350,630,376,4,-121
13:16:23.819,,-5,-32,1048,-420,-140,420,381,4,-121
13:16:23.838,,-7,-32,1044,-700,-140,140,382,-3,-115
13:16:23.857,,-7,-33,1044,-490,-560,-140,382,7,-115
13:16:23.876,,-5,-37,1047,-420,-980,-280,373,4,-114
13:16:23.894,,-3,-39,1050,-140,-1400,-210,379,6,-117
13:16:23.913,,-2,-37,1052,0,-1680,-70,385,0,-117
13:16:23.932,,-3,-37,1053,-350,-1610,0,382,4,-121
13:16:23.951,,-5,-37,1058,-420,-1470,210,379,3,-117
13:16:23.970,,-7,-37,1059,-210,-1540,280,372,7,-117
13:16:23.988,,-6,-35,1059,210,-1680,210,372,7,-117
13:16:24.007,,-4,-31,1056,420,-1680,0,376,10,-115
13:16:24.026,,-3,-35,1058,0,-1330,-70,385,9,-129
13:16:24.045,,-2,-39,1061,-280,-910,-70,384,1,-117
13:16:24.063,,-2,-42,1059,-350,-630,0,372,1,-115
13:16:24.082,,-2,-40,1056,-140,-560,140,382,3,-121
13:16:24.101,,-3,-38,1053,-140,-420,280,375,7,-120
13:16:24.120,,-2,-38,1052,-210,-490,350,381,4,-118
13:16:24.139,,-3,-36,1050,-70,-560,350,384,1,-111
13:16:24.157,,-5,-31,1047,-140,-560,350,385,1,-126
13:16:24.176,,-5,-34,1048,-490,-560,350,381,3,-123
13:16:24.195,,-5,-34,1047,-420,-700,280,378,3,-121
13:16:24.214,,-5,-34,1048,-350,-840,70,378,3,-123
13:16:24.233,,-3,-38,1051,-490,-1190,-140,379,3,-114
13:16:24.251,,-2,-39,1054,-420,-1400,-140,376,6,-118
13:16:24.270,,-1,-38,1053,-420,-1400,70,375,6,-114
13:16:24.289,,0,-38,1056,-560,-1190,350,382,4,-109
13:16:24.308,,0,-36,1058,-560,-980,490,379,7,-117
13:16:24.327,,0,-34,1059,-420,-840,420,378,6,-112
13:16:24.345,,0,-33,1058,-490,-700,280,378,4,-120
13:16:24.364,,-3,-31,1056,-490,-490,140,376,10,-117
13:16:24.383,,-3,-32,1052,-560,-420,0,385,9,-118
13:16:24.402,,-2,-34,1053,-490,-630,-70,378,0,-117
13:16:24.421,,-3,-33,1051,-210,-770,0,382,3,-117
13:16:24.439,,-2,-34,1051,-280,-840,-70,373,10,-117
13:16:24.458,,-2,-36,1051,-350,-840,-140,378,3,-121
13:16:24.477,,-3,-33,1050,-210,-910,-350,381,7,-117
13:16:24.496,,-4,-34,1050,-350,-1050,-490,376,9,-123
13:16:24.515,,-1,-36,1051,-420,-1120,-560,381,4,-124
13:16:24.533,,-1,-35,1052,-560,-910,-490,381,9,-118
13:16:24.552,,-2,-40,1054,-1050,-700,-420,385,4,-118
13:16:24.571,,-3,-41,1054,-1120,-700,-350,375,9,-124
13:16:24.590,,-6,-38,1051,-700,-840,-350,384,4,-123
13:16:24.609,,-6,-35,1048,-700,-980,-210,382,6,-123
13:16:24.627,,-5,-35,1049,-770,-1050,-70,375,7,-121
13:16:24.646,,-4,-36,1053,-770,-1190,-70,372,4,-115
13:16:24.665,,-1,-38,1054,-770,-1190,-210,379,7,-123
13:16:24.684,,1,-38,1053,-840,-1050,-420,376,1,-117
13:16:24.703,,1,-39,1051,-1120,-770,-490,381,6,-115
13:16:24.721,,0,-42,1051,-1190,-630,-350,375,6,-114
13:16:24.740,,1,-41,1052,-1190,-700,-210,373,9,-120
13:16:24.759,,1,-37,1052,-1050,-840,-70,379,3,-121
13:16:24.778,,0,-35,1056,-980,-980,-140,375,3,-120
13:16:24.797,,0,-34,1054,-980,-1050,-490,381,7,-114
13:16:24.815,,0,-35,1056,-910,-980,-630,375,3,-117
13:16:24.834,,0,-37,1058,-1120,-840,-630,379,6,-118
13:16:24.853,,-2,-40,1055,-1050,-700,-630,375,3,-118
13:16:24.872,,0,-38,1056,-980,-700,-770,376,4,-123
13:16:24.891,,-1,-42,1055,-980,-630,-770,378,7,-117
13:16:24.896,<gest2_circle_ccw,,,,,,,,,
13:16:24.909,,-2,-42,1057,-980,-560,-840,379,9,-112
13:16:24.928,,-1,-44,1058,-980,-490,-840,372,4,-114
13:16:24.947,,-2,-44,1056,-980,-280,-770,369,10,-118
13:16:24.966,,-5,-42,1051,-910,-210,-770,384,6,-117
13:16:24.985,,-5,-46,1052,-1050,-140,-560,385,6,-123
13:16:25.003,,-5,-46,1053,-1050,-350,-560,385,6,-123
13:16:25.022,,-4,-46,1051,-840,-630,-630,379,13,-112
13:16:25.041,,-2,-44,1049,-840,-770,-700,387,4,-117
13:16:25.060,,-1,-45,1050,-1120,-700,-350,375,10,-112
13:16:25.079,,-1,-45,1050,-1120,-700,-350,379,9,-118
13:16:25.097,,-3,-45,1054,-1330,-560,-70,391,3,-114
13:16:25.116,,-4,-42,1052,-1120,-700,0,376,4,-117
13:16:25.135,,-6,-37,1050,-910,-910,-210,376,12,-115
13:16:25.154,,-7,-40,1051,-1050,-1120,-490,378,9,-114
13:16:25.173,,-5,-43,1053,-1120,-1260,-630,378,10,-114
13:16:25.191,,-2,-48,1060,-1050,-1330,-490,384,18,-115
13:16:25.210,,-3,-48,1062,-980,-1190,-350,378,13,-118
13:16:25.229,,-5,-47,1062,-700,-1050,-280,385,10,-118
13:16:25.248,,-8,-45,1060,-490,-910,-140,379,9,-109
13:16:25.267,,-10,-49,1060,-350,-840,0,382,4,-117
13:16:25.285,,-10,-48,1059,-70,-840,140,384,4,-112
13:16:25.304,,-7,-50,1059,140,-910,350,378,0,-112
13:16:25.323,,-5,-51,1064,350,-770,490,375,7,-121
13:16:25.342,,-1,-56,1062,490,-630,490,376,4,-117
13:16:25.361,,0,-54,1059,700,-280,630,378,7,-129
13:16:25.379,,-1,-54,1055,280,210,980,384,13,-112
13:16:25.398,,-1,-51,1054,140,560,1330,381,9,-117
13:16:25.417,,-3,-45,1051,70,630,1470,379,6,-115
13:16:25.436,,-6,-41,1044,70,420,1400,375,6,-120
13:16:25.455,,-6,-36,1046,70,70,1330,376,10,-115
13:16:25.473,,-3,-32,1042,-140,-280,980,381,1,-118
13:16:25.492,,-2,-29,1043,-350,-420,770,381,10,-118
13:16:25.511,,0,-31,1042,-840,-490,490,376,9,-112
13:16:25.530,,1,-33,1046,-1120,-700,140,384,9,-124
13:16:25.549,,0,-35,1047,-1050,-1050,-210,375,10,-115
13:16:25.567,,-2,-34,1047,-700,-1610,-420,379,7,-123
13:16:25.586,,-3,-35,1049,-700,-1960,-350,376,9,-118
13:16:25.605,,-2,-37,1056,-840,-2100,-350,379,9,-118
13:16:25.624,,-1,-39,1060,-630,-2030,-630,378,6,-117
13:16:25.643,,1,-41,1065,-630,-1750,-840,378,13,-111
13:16:25.661,,1,-48,1066,-840,-1330,-910,378,13,-111
13:16:25.680,,1,-50,1064,-700,-840,-910,384,9,-112
13:16:25.699,,2,-51,1061,-630,-490,-770,385,7,-117
13:16:25.718,,0,-51,1061,-630,-210,-560,381,12,-118
13:16:25.737,,-2,-48,1055,-490,-140,-490,381,13,-109
13:16:25.755,,-1,-43,1052,-420,-70,-560,379,9,-115
13:16:25.774,,-2,-41,1048,-560,-70,-700,391,12,-118
13:16:25.793,,-5,-42,1047,-770,-70,-910,379,6,-115
13:16:25.812,,-8,-42,1046,-910,-280,-1050,379,9,-124
13:16:25.831,,-8,-44,1047,-700,-700,-1190,373,7,-118
13:16:25.849,,-9,-44,1053,-630,-910,-1190,381,9,-126
13:16:25.868,,-8,-49,1057,-840,-1120,-1190,384,7,-120
13:16:25.887,,-8,-52,1057,-420,-1330,-1260,378,12,-114
13:16:25.906,,-8,-49,1058,-210,-1190,-910,376,3,-114
13:16:25.925,,-8,-51,1060,-630,-910,-420,379,6,-121
13:16:25.943,,-8,-50,1062,-560,-700,-70,381,9,-121
13:16:25.962,,-6,-45,1059,-70,-700,-70,385,12,-111
13:16:25.981,,-4,-44,1059,-70,-560,-70,376,0,-115
13:16:26.000,,-3,-46,1058,-350,-210,0,376,0,-115
13:16:26.019,,-6,-45,1055,-280,-70,0,382,3,-120
13:16:26.037,,-6,-46,1054,-140,-280,-70,370,7,-117
13:16:26.056,,-4,-44,1051,0,-560,0,375,9,-120
13:16:26.075,,-3,-43,1052,70,-770,0,381,9,-109
13:16:26.094,,-4,-43,1051,70,-840,0,384,13,-117
13:16:26.113,,-4,-43,1049,70,-840,-140,382,10,-108
13:16:26.131,,-4,-43,1049,70,-840,-280,381,13,-111
13:16:26.150,,-4,-43,1047,-210,-910,-350,375,7,-120
13:16:26.169,,-5,-46,1045,-420,-1050,-490,379,18,-115
13:16:26.188,,-6,-47,1049,-350,-1400,-490,384,12,-120
13:16:26.207,,-6,-51,1052,-350,-1750,-420,379,10,-115
13:16:26.225,,-5,-50,1056,-140,-1890,-350,379,16,-115
13:16:26.244,,-3,-50,1060,-70,-1750,-140,384,9,-109
13:16:26.263,,0,-51,1062,-280,-1330,70,379,9,-114
13:16:26.282,,0,-50,1063,-490,-770,420,382,7,-115
13:16:26.301,,0,-50,1061,-630,-210,560,376,10,-112
13:16:26.319,,-3,-47,1056,-630,140,700,379,6,-123
13:16:26.338,,-4,-47,1057,-490,0,770,381,13,-106
13:16:26.357,,-4,-45,1054,-70,-280,630,382,9,-120
13:16:26.376,,-3,-44,1052,0,-210,770,378,10,-120
13:16:26.395,,0,-49,1055,-420,0,910,375,10,-118
13:16:26.413,,-2,-54,1055,-560,280,1120,384,12,-121
13:16:26.432,,-2,-59,1057,-630,490,1470,375,9,-120
