Sensors' Acquisition [Hz]: Acc@52.0 Gyro@52.0 Mag@52.0 
hh:mm:ss.ms, Annotation , AccX [mg], AccY, AccZ, GyroX [mdps], GyroY, GyroZ, MagX [mgauss], MagY, MagZ
19:07:38.362,,-93,68,1046,140,-1820,-700,121,-79,-271
19:07:38.381,,-92,71,1044,-140,-1750,-770,121,-78,-270
19:07:38.400,,-90,70,1047,-420,-1610,-840,123,-76,-268
19:07:38.419,,-88,72,1045,-700,-1330,-980,123,-84,-271
19:07:38.437,,-91,72,1040,-980,-1190,-1050,123,-81,-265
19:07:38.456,,-95,70,1039,-910,-1330,-1050,126,-82,-261
19:07:38.475,,-92,71,1042,-700,-1680,-980,121,-82,-277
19:07:38.494,,-91,72,1037,-840,-1960,-840,124,-76,-262
19:07:38.512,,-89,72,1042,-1050,-1960,-700,129,-79,-270
19:07:38.531,,-89,72,1043,-1400,-1890,-630,124,-81,-277
19:07:38.550,,-85,68,1043,-1470,-2100,-630,123,-84,-270
19:07:38.569,,-83,68,1048,-980,-2240,-490,123,-84,-280
19:07:38.588,,-82,70,1047,-980,-2170,-350,124,-76,-265
19:07:38.606,,-83,69,1052,-1400,-2100,70,112,-81,-277
19:07:38.625,,-83,72,1055,-1050,-2380,350,126,-69,-271
19:07:38.644,,-82,76,1055,-280,-2590,210,127,-79,-262
19:07:38.663,,-80,80,1060,70,-2450,-140,126,-82,-261
19:07:38.681,,-77,76,1065,-420,-2030,-350,126,-73,-271
19:07:38.700,,-78,69,1066,-770,-1470,-560,120,-84,-271
19:07:38.719,,-76,68,1066,-350,-980,-560,120,-75,-270
19:07:38.738,,-78,71,1061,-280,-560,-490,114,-82,-270
19:07:38.757,,-76,71,1058,-560,-210,-560,129,-82,-268
19:07:38.775,,-79,72,1052,-420,70,-630,121,-76,-270
19:07:38.794,,-82,76,1048,-210,210,-910,120,-81,-271
19:07:38.813,,-83,72,1047,-420,0,-980,123,-75,-265
19:07:38.832,,-83,73,1044,-140,-280,-1050,126,-81,-267
19:07:38.851,,-82,74,1045,-70,-350,-980,130,-76,-273
19:07:38.869,,-80,70,1048,-210,-420,-910,129,-81,-268
19:07:38.888,,-81,72,1049,70,-350,-700,124,-76,-268
19:07:38.907,,-84,76,1045,0,-350,-630,124,-76,-268
19:07:38.926,,-87,74,1046,-140,-490,-420,123,-72,-277
19:07:38.944,,-86,76,1049,280,-980,-420,120,-79,-273
19:07:38.963,,-84,76,1053,700,-1470,-490,124,-78,-270
19:07:38.982,,-83,78,1057,910,-1610,-630,120,-78,-267
19:07:39.001,,-83,77,1057,770,-1190,-700,118,-76,-274
19:07:39.020,,-82,75,1056,560,-770,-630,126,-81,-274
19:07:39.038,,-85,74,1054,350,-210,-560,123,-76,-271
19:07:39.057,,-85,71,1053,140,0,-630,130,-85,-274
19:07:39.076,,-87,73,1048,280,140,-490,123,-85,-271
19:07:39.095,,-85,74,1045,280,140,-490,127,-85,-265
19:07:39.113,,-85,78,1046,70,210,-490,121,-81,-274
19:07:39.132,,-85,75,1045,-350,210,-490,124,-75,-270
19:07:39.151,,-82,75,1043,-210,70,-630,123,-76,-274
19:07:39.170,,-84,76,1037,-70,140,-630,127,-81,-273
19:07:39.189,,-87,75,1037,-350,0,-490,127,-81,-265
19:07:39.207,,-89,74,1038,-560,-350,-280,121,-85,-264
19:07:39.226,,-86,77,1039,-280,-840,-210,133,-84,-268
19:07:39.245,,-84,79,1042,-280,-1120,-350,121,-85,-277
19:07:39.264,,-82,77,1041,-560,-1050,-560,129,-79,-273
19:07:39.282,,-84,73,1039,-980,-840,-770,129,-81,-277
19:07:39.301,,-89,67,1041,-1260,-980,-490,126,-78,-268
19:07:39.320,,-86,64,1047,-840,-1470,-140,120,-84,-271
19:07:39.339,,-86,70,1048,-630,-1750,140,118,-81,-270
19:07:39.358,,-84,72,1057,-630,-1750,280,120,-85,-274
19:07:39.376,,-84,75,1061,-630,-1540,280,121,-91,-258
19:07:39.395,,-82,78,1059,-490,-1190,210,123,-81,-268
19:07:39.414,,-83,79,1063,-560,-560,140,127,-79,-273
19:07:39.433,,-82,79,1061,-630,-210,210,114,-78,-264
19:07:39.452,,-82,79,1058,-280,-70,140,120,-82,-271
19:07:39.470,,-80,80,1058,-140,70,0,124,-84,-276
19:07:39.489,,-79,78,1051,-560,210,-70,132,-84,-270
19:07:39.508,,-78,72,1044,-560,0,-140,124,-82,-271
19:07:39.527,,-80,72,1040,70,-210,-210,124,-85,-273
19:07:39.545,,-83,75,1038,560,-700,-70,123,-88,-273
19:07:39.564,,-82,77,1042,490,-1260,70,123,-75,-270
19:07:39.583,,-78,78,1047,140,-1540,0,118,-73,-271
19:07:39.602,,-79,80,1050,0,-1470,-140,118,-79,-271
19:07:39.621,,-78,78,1051,140,-1260,-350,120,-79,-265
19:07:39.639,,-82,81,1049,0,-910,-490,124,-73,-270
19:07:39.658,,-81,79,1050,-210,-840,-490,126,-84,-267
19:07:39.677,,-83,78,1050,-280,-980,-490,129,-79,-261
19:07:39.696,,-82,78,1047,0,-1260,-420,127,-82,-261
19:07:39.715,,-79,80,1050,210,-1470,-420,124,-88,-267
19:07:39.733,,-79,80,1050,70,-1400,-490,132,-76,-262
19:07:39.752,,-77,77,1048,0,-1260,-490,130,-79,-273
19:07:39.771,,-79,76,1047,-70,-1120,-350,129,-82,-265
19:07:39.790,,-81,73,1045,-280,-1050,-210,120,-85,-274
19:07:39.808,,-80,74,1046,0,-1190,-210,121,-88,-273
19:07:39.827,,-82,77,1046,70,-1190,-280,123,-84,-273
19:07:39.846,,-80,77,1049,-210,-1330,-210,123,-78,-270
19:07:39.865,,-77,77,1050,-280,-1050,-210,123,-78,-270
19:07:39.884,,-76,79,1055,-490,-700,-210,126,-84,-279
19:07:39.902,,-75,77,1054,-840,-490,-280,121,-84,-265
19:07:39.921,,-77,79,1048,-700,-420,-420,124,-84,-268
19:07:39.940,,-80,83,1045,-630,-350,-490,121,-75,-274
19:07:39.959,,-81,78,1046,-700,-560,-420,120,-84,-282
19:07:39.977,,-81,78,1044,-420,-840,-420,126,-81,-271
19:07:39.996,,-80,82,1049,-70,-1050,-490,124,-76,-274
19:07:40.015,,-79,77,1050,-420,-1190,-560,123,-75,-267
19:07:40.034,,-76,76,1051,-490,-1120,-700,136,-85,-267
19:07:40.053,,-76,76,1051,-490,-1120,-700,129,-82,-262
19:07:40.071,,-76,76,1051,-560,-840,-770,129,-79,-270
19:07:40.090,,-77,74,1050,-630,-700,-700,121,-73,-267
19:07:40.109,,-78,75,1048,-560,-560,-560,133,-73,-271
19:07:40.128,,-77,75,1048,-560,-490,-420,129,-79,-262
19:07:40.147,,-75,75,1051,-630,-420,-420,123,-79,-274
19:07:40.165,,-77,74,1049,-770,-350,-350,123,-84,-268
19:07:40.184,,-77,77,1052,-630,-280,-420,124,-81,-270
19:07:40.203,,-77,79,1048,-700,-350,-490,121,-82,-261
19:07:40.222,,-76,81,1046,-770,-420,-560,124,-72,-267
19:07:40.240,,-76,79,1047,-1120,-490,-490,130,-84,-259
19:07:40.259,,-76,76,1047,-840,-630,-490,127,-88,-261
19:07:40.278,,-76,79,1048,-210,-700,-630,123,-78,-276
19:07:40.297,,-78,79,1047,-280,-840,-700,126,-84,-267
19:07:40.316,,-79,76,1050,-630,-1050,-700,126,-81,-276
19:07:40.334,,-78,74,1049,-560,-1330,-700,118,-76,-276
19:07:40.353,,-77,74,1049,-210,-1470,-700,127,-84,-264
19:07:40.372,,-76,76,1054,-70,-1190,-700,127,-79,-271
19:07:40.391,,-76,76,1055,-350,-700,-630,114,-79,-268
19:07:40.409,,-78,74,1056,-700,-350,-630,130,-82,-262
19:07:40.428,,-80,73,1055,-840,-210,-560,118,-84,-267
19:07:40.447,,-82,73,1049,-770,-280,-490,121,-72,-273
19:07:40.466,,-81,73,1049,-280,-560,-280,129,-79,-267
19:07:40.485,,-80,80,1056,210,-700,-140,121,-81,-259
19:07:40.503,,-77,79,1055,-140,-630,-70,132,-82,-264
19:07:40.522,,-73,75,1058,-140,-420,-140,121,-84,-268
19:07:40.541,,-74,79,1058,-70,210,-140,124,-79,-268
19:07:40.560,,-74,76,1052,-490,560,-70,124,-75,-273
19:07:40.578,,-78,79,1050,-350,770,-140,120,-78,-270
19:07:40.597,,-78,81,1046,-70,560,-210,121,-78,-268
19:07:40.616,,-77,79,1044,-70,210,-350,123,-82,-268
19:07:40.618,>gest4_cross_right,,,,,,,,,
19:07:40.635,,-75,77,1045,210,-140,-490,130,-85,-282
19:07:40.654,,-75,78,1049,700,-490,-490,126,-88,-270
19:07:40.672,,-73,81,1050,700,-560,-560,126,-79,-271
19:07:40.691,,-73,78,1047,70,-490,-560,121,-85,-264
19:07:40.710,,-76,79,1047,0,-280,-630,123,-79,-264
19:07:40.729,,-81,78,1044,0,-210,-630,118,-75,-268
19:07:40.748,,-82,76,1043,-140,-420,-560,121,-78,-271
19:07:40.766,,-82,75,1046,70,-770,-560,123,-78,-267
19:07:40.785,,-80,78,1044,70,-980,-490,118,-78,-268
19:07:40.804,,-80,77,1044,-280,-910,-560,124,-87,-274
19:07:40.823,,-81,73,1045,-630,-770,-630,124,-87,-274
19:07:40.841,,-83,71,1048,-840,-700,-490,127,-82,-267
19:07:40.860,,-81,69,1047,-420,-980,-140,126,-82,-271
19:07:40.879,,-79,75,1046,-350,-980,140,127,-78,-270
19:07:40.898,,-78,75,1050,-1050,-910,490,126,-82,-267
19:07:40.917,,-78,75,1045,-1190,-1050,560,124,-82,-273
19:07:40.935,,-78,81,1052,-630,-1050,420,124,-82,-267
19:07:40.954,,-80,81,1057,-700,-1190,350,121,-81,-274
19:07:40.973,,-78,76,1061,-420,-1470,420,126,-90,-264
19:07:40.992,,-75,82,1066,490,-1540,560,130,-88,-268
19:07:41.010,,-74,84,1070,630,-1330,700,123,-85,-268
19:07:41.029,,-74,84,1068,560,-980,700,130,-84,-267
19:07:41.048,,-75,87,1067,910,-490,630,118,-85,-274
19:07:41.067,,-75,88,1069,1050,-210,420,130,-79,-273
19:07:41.086,,-76,87,1070,1190,0,210,121,-84,-267
19:07:41.104,,-78,88,1075,1540,70,140,121,-78,-267
19:07:41.123,,-84,90,1082,2030,-140,350,123,-76,-270
19:07:41.142,,-97,102,1094,2450,-280,700,121,-73,-264
19:07:41.161,,-124,101,1124,2660,-980,1750,126,-82,-268
19:07:41.179,,-144,95,1176,5740,-3080,3360,124,-85,-259
19:07:41.198,,-164,111,1250,12320,-5880,5740,121,-84,-261
19:07:41.217,,-173,142,1354,20510,-9450,9590,121,-82,-265
19:07:41.236,,-140,225,1502,29540,-10710,14210,123,-81,-265
19:07:41.255,,-97,296,1607,31080,-5880,17640,114,-84,-264
19:07:41.273,,-78,319,1660,24010,5460,15890,121,-79,-279
19:07:41.292,,-74,257,1675,17220,20930,11760,111,-79,-277
19:07:41.311,,-92,235,1737,19180,36120,6720,108,-76,-285
19:07:41.330,,-82,227,1787,33390,50190,3220,102,-73,-282
19:07:41.348,,-56,238,1701,49490,66010,-2590,99,-73,-286
19:07:41.367,,-42,223,1583,59780,83020,-10710,90,-60,-291
19:07:41.386,,-44,215,1476,61600,99960,-18760,78,-54,-297
19:07:41.405,,-63,170,1360,57750,115430,-23310,75,-42,-295
19:07:41.424,,-79,109,1185,51170,127470,-26040,73,-31,-313
19:07:41.442,,-108,53,991,45220,135520,-27300,64,-12,-313
19:07:41.461,,-138,19,824,39340,140000,-27440,51,0,-318
19:07:41.480,,-187,10,698,33390,140420,-24710,51,9,-316
19:07:41.499,,-237,-30,573,25970,136290,-19880,42,27,-307
19:07:41.518,,-281,-52,478,19530,127960,-14070,43,40,-318
19:07:41.536,,-311,-100,401,16170,115780,-6720,34,51,-313
19:07:41.555,,-332,-93,371,18200,100870,770,36,67,-318
19:07:41.574,,-353,-53,358,22330,86240,9730,31,76,-310
19:07:41.593,,-377,7,308,22610,73570,18410,24,76,-316
19:07:41.611,,-389,34,249,15610,61320,23870,24,88,-315
19:07:41.630,,-416,63,228,8330,50470,27790,27,94,-309
19:07:41.649,,-442,95,233,5600,40180,33250,22,93,-303
19:07:41.668,,-456,141,241,5110,30590,38150,30,87,-303
19:07:41.687,,-455,174,239,2030,22050,40670,18,96,-304
19:07:41.705,,-441,218,242,-4550,14000,40880,21,94,-306
19:07:41.724,,-405,210,229,-14490,6440,40810,13,87,-292
19:07:41.743,,-380,179,195,-25690,420,39830,15,91,-306
19:07:41.762,,-372,150,168,-37940,-6160,38990,24,85,-307
19:07:41.780,,-390,131,176,-52990,-14210,39970,36,82,-301
19:07:41.799,,-428,97,216,-68950,-24990,43470,36,82,-301
19:07:41.818,,-449,72,298,-83790,-39550,46620,34,73,-312
19:07:41.837,,-449,72,298,-96110,-55720,48160,48,64,-315
19:07:41.856,,-454,61,354,-96110,-55720,48160,52,54,-310
19:07:41.874,,-418,32,364,-104790,-70910,47320,63,49,-309
19:07:41.893,,-428,4,420,-111440,-83090,44730,70,31,-315
19:07:41.912,,-427,-21,573,-115150,-97720,44940,87,19,-322
19:07:41.931,,-383,-35,786,-112910,-114870,47040,106,3,-306
19:07:41.949,,-293,0,977,-103880,-131040,50260,117,-16,-309
19:07:41.968,,-202,9,1067,-97510,-140980,50260,130,-12,-306
19:07:41.987,,-126,66,1150,-93520,-145740,47180,133,-27,-295
19:07:42.006,,-67,87,1367,-82110,-148050,49630,147,-40,-280
19:07:42.025,,23,138,1624,-65730,-146160,51590,159,-48,-279
19:07:42.043,,132,247,1787,-51100,-135380,50050,160,-57,-270
19:07:42.062,,199,394,1866,-46550,-114030,46200,171,-66,-274
19:07:42.081,,207,418,1827,-57260,-87080,39900,172,-75,-262
19:07:42.100,,188,334,1769,-69090,-59570,31780,174,-79,-259
19:07:42.118,,139,189,1715,-67340,-36610,24290,180,-85,-252
19:07:42.137,,82,106,1642,-50050,-22190,18060,190,-79,-250
19:07:42.156,,46,81,1576,-27510,-16240,15330,184,-84,-252
19:07:42.175,,40,113,1511,-8120,-14210,16590,181,-81,-255
19:07:42.194,,48,157,1460,2240,-12040,18830,189,-76,-250
19:07:42.212,,43,167,1450,5950,-7910,19180,184,-85,-238
19:07:42.231,,25,148,1452,10920,-2170,17290,189,-79,-249
19:07:42.250,,-28,129,1459,18620,4620,14770,181,-84,-246
19:07:42.269,,-86,137,1526,30030,9240,13720,192,-76,-250
19:07:42.288,,-110,170,1649,43890,13090,15750,175,-73,-250
19:07:42.306,,-103,218,1769,54950,19320,18200,171,-70,-258
19:07:42.325,,-50,229,1835,62020,30240,17500,177,-75,-259
19:07:42.344,,-6,186,1819,67480,48790,14630,159,-69,-268
19:07:42.363,,-9,96,1723,74900,71750,10010,160,-63,-277
19:07:42.381,,-34,63,1649,87080,94010,4970,148,-58,-274
19:07:42.400,,-57,36,1555,98700,113120,2310,142,-54,-289
19:07:42.419,,-67,28,1431,107100,125440,2310,129,-39,-291
19:07:42.438,,-46,33,1275,109340,133910,3220,124,-36,-292
19:07:42.457,,-36,42,1103,105840,140910,3430,115,-18,-297
19:07:42.475,,-42,47,937,101220,146090,2870,96,-9,-306
19:07:42.494,,-67,49,757,95550,149380,1610,87,3,-313
19:07:42.513,,-99,89,621,89320,148540,1680,73,16,-319
19:07:42.532,,-137,93,497,82250,142660,3990,72,36,-321
19:07:42.550,,-167,109,368,76370,132790,5460,67,42,-319
19:07:42.569,,-209,142,265,68740,119140,6790,54,60,-312
19:07:42.588,,-236,179,203,60130,100940,9730,48,55,-315
19:07:42.607,,-270,208,153,49910,80080,12950,43,67,-319
19:07:42.626,,-279,251,110,41580,57540,14980,31,73,-304
19:07:42.644,,-282,265,85,36890,35770,15890,30,78,-303
19:07:42.663,,-254,332,87,36400,16800,15190,25,76,-321
19:07:42.682,,-236,416,128,32340,1960,14070,28,75,-313
19:07:42.701,,-224,486,203,21630,-11480,11620,10,79,-310
19:07:42.719,,-242,501,232,7350,-22260,7350,22,70,-301
19:07:42.738,,-245,506,267,-1960,-32340,1960,22,75,-316
19:07:42.757,,-226,529,331,-4130,-42560,-3430,22,75,-316
19:07:42.776,,-203,570,392,-3920,-51310,-8540,33,66,-313
19:07:42.795,,-193,600,453,-5880,-59780,-14210,31,58,-310
19:07:42.813,,-183,624,498,-8960,-69370,-21490,36,52,-307
19:07:42.832,,-189,644,537,-11620,-77840,-31150,39,52,-315
19:07:42.851,,-233,686,583,-12460,-86310,-42000,37,39,-312
19:07:42.870,,-221,707,656,-7210,-97510,-52500,39,30,-297
19:07:42.889,,-129,727,689,-630,-106890,-66640,39,30,-309
19:07:42.907,,-101,712,673,-1610,-111300,-84980,45,19,-300
19:07:42.926,,-115,671,660,-12040,-117250,-102270,54,22,-304
19:07:42.945,,-100,574,653,-24710,-125930,-115150,46,10,-298
19:07:42.964,,-84,448,650,-35420,-134470,-125090,49,0,-291
19:07:42.982,,-106,344,708,-43190,-144830,-131670,52,-1,-301
19:07:43.001,,-183,237,794,-47460,-155960,-132090,63,-13,-289
19:07:43.020,,-223,112,897,-44660,-168420,-130060,64,-18,-292
19:07:43.039,,-204,107,1031,-36470,-178080,-130270,70,-33,-294
19:07:43.058,,-156,48,1201,-29330,-180460,-128170,66,-46,-285
19:07:43.076,,-112,29,1372,-28560,-176120,-126280,72,-58,-277
19:07:43.095,,-42,-43,1540,-34790,-164220,-122010,73,-70,-273
19:07:43.114,,23,-145,1655,-42770,-142240,-112280,70,-87,-271
19:07:43.133,,43,-232,1706,-50330,-113330,-97790,73,-88,-256
19:07:43.151,,34,-308,1716,-56210,-84210,-80570,79,-93,-258
19:07:43.170,,4,-353,1666,-56070,-58030,-62020,81,-93,-259
19:07:43.189,,-28,-334,1587,-44240,-37240,-43540,82,-96,-262
19:07:43.208,,-90,-229,1489,-28770,-20790,-27160,76,-94,-265
19:07:43.227,,-137,-117,1398,-19600,-9800,-13650,79,-96,-259
19:07:43.245,,-155,-35,1331,-16660,-3220,-3500,87,-99,-264
19:07:43.264,,-142,21,1268,-13790,1470,3220,88,-103,-259
19:07:43.283,,-109,60,1210,-11200,6090,5950,78,-94,-258
19:07:43.302,,-85,74,1162,-9660,10080,6650,96,-102,-255
19:07:43.320,,-66,77,1125,-8260,12810,7280,99,-97,-255
19:07:43.339,,-48,72,1105,-6090,14490,8330,79,-88,-258
19:07:43.358,,-42,85,1083,-2520,14840,9800,87,-100,-264
19:07:43.377,,-34,96,1059,770,13580,11410,85,-87,-262
19:07:43.396,,-24,114,1033,2800,12180,12180,93,-97,-264
19:07:43.414,,-23,135,1025,2240,11480,12390,94,-87,-262
19:07:43.433,,-25,146,1036,-1400,10220,12390,88,-90,-264
19:07:43.452,,-17,142,1045,-4830,7840,12250,93,-94,-265
19:07:43.471,,-11,134,1055,-4830,5600,11830,94,-96,-267
19:07:43.489,,1,139,1059,-1750,3360,10640,79,-88,-256
19:07:43.508,,15,151,1062,1330,2450,9660,94,-99,-262
19:07:43.527,,29,162,1077,2520,3080,8610,85,-96,-264
19:07:43.546,,34,158,1079,840,4340,7280,94,-94,-261
19:07:43.565,,29,137,1068,-1120,5530,6230,94,-93,-259
19:07:43.583,,21,125,1053,-1330,6440,5460,90,-88,-268
19:07:43.602,,9,117,1046,-840,7000,5740,99,-97,-262
19:07:43.621,,-2,112,1044,-490,6790,6580,106,-91,-265
19:07:43.640,,-2,112,1044,-490,6790,6580,97,-87,-268
19:07:43.659,,-14,114,1046,1330,6230,7630,100,-90,-273
19:07:43.677,,-22,132,1048,3570,5670,8050,91,-90,-259
19:07:43.696,,-27,142,1044,3360,5600,7770,94,-88,-268
19:07:43.715,,-33,141,1050,1610,5950,7280,94,-88,-268
19:07:43.734,,-41,133,1046,420,6440,6790,97,-82,-267
19:07:43.752,,-45,130,1038,560,6720,6020,100,-88,-264
19:07:43.771,,-52,132,1031,1120,7000,5390,97,-84,-267
19:07:43.790,,-58,137,1029,350,7070,4900,93,-91,-256
19:07:43.809,,-68,133,1024,-1330,6510,4620,97,-82,-271
19:07:43.828,,-78,131,1027,-1540,5320,4620,93,-81,-265
19:07:43.846,,-79,137,1031,-560,3850,4130,102,-82,-268
19:07:43.865,,-76,149,1032,280,2660,3290,97,-76,-262
19:07:43.884,,-78,153,1035,-70,2030,2170,99,-79,-268
19:07:43.903,,-82,154,1044,-840,1400,1120,91,-79,-264
19:07:43.921,,-79,146,1043,-1890,560,210,105,-84,-258
19:07:43.940,,-74,142,1038,-2310,-420,-770,105,-82,-253
19:07:43.959,,-68,130,1039,-2450,-1330,-1610,99,-84,-262
19:07:43.978,,-63,120,1040,-2030,-2030,-1960,106,-87,-259
19:07:43.997,,-61,116,1042,-980,-2450,-2030,96,-88,-265
19:07:44.015,,-59,114,1044,-560,-2940,-1750,94,-81,-262
19:07:44.034,,-58,111,1048,280,-3290,-1120,100,-78,-259
19:07:44.053,,-61,116,1052,1190,-3290,-700,100,-84,-256
19:07:44.072,,-64,121,1057,1330,-3010,-350,97,-91,-268
19:07:44.090,,-62,122,1060,840,-2520,-140,93,-94,-265
19:07:44.109,,-57,117,1064,420,-1960,-70,97,-82,-265
19:07:44.128,,-54,114,1063,490,-1190,-210,94,-87,-268
19:07:44.147,,-52,111,1061,490,-280,-140,102,-81,-268
19:07:44.166,,-51,106,1055,140,350,280,94,-88,-267
19:07:44.184,,-47,106,1051,210,700,840,96,-85,-265
19:07:44.203,,-48,111,1045,840,980,1400,94,-84,-261
19:07:44.222,,-45,117,1043,980,1330,1820,100,-84,-265
19:07:44.241,,-48,124,1045,700,1610,1890,97,-81,-273
19:07:44.259,,-51,126,1039,-70,1680,1820,97,-81,-267
19:07:44.278,,-49,130,1037,0,1470,1750,91,-82,-264
19:07:44.297,,-48,135,1037,-70,1400,1540,97,-79,-265
19:07:44.316,,-47,131,1034,-490,1330,1050,91,-82,-265
19:07:44.335,,-47,129,1031,-490,1400,560,91,-84,-268
19:07:44.353,,-50,129,1031,-630,1330,140,93,-81,-262
19:07:44.372,,-54,124,1028,-1190,840,210,96,-81,-268
19:07:44.391,,-53,123,1033,-1050,-70,350,93,-82,-267
19:07:44.410,,-53,126,1032,-560,-770,350,94,-87,-261
19:07:44.428,,-55,133,1037,-70,-1050,0,93,-88,-270
19:07:44.447,,-58,133,1039,-420,-1050,-420,103,-88,-276
19:07:44.466,,-59,130,1045,-910,-1120,-840,100,-87,-264
19:07:44.485,,-60,126,1047,-910,-1260,-980,103,-94,-268
19:07:44.504,,-60,129,1047,-980,-980,-840,99,-85,-265
19:07:44.522,,-61,128,1054,-1540,-560,-700,94,-81,-264
19:07:44.541,,-60,121,1054,-1750,-350,-840,96,-75,-268
19:07:44.560,,-61,125,1057,-1050,70,-1120,91,-87,-273
19:07:44.579,,-63,120,1053,-910,0,-1120,100,-87,-261
19:07:44.598,,-64,118,1051,-490,-70,-770,97,-85,-259
19:07:44.616,,-64,124,1048,0,-140,-280,99,-85,-256
19:07:44.635,,-63,127,1047,-280,70,0,91,-82,-265
19:07:44.654,,-66,128,1051,-490,280,70,99,-90,-261
19:07:44.673,,-67,125,1043,-350,140,-210,99,-90,-261
19:07:44.691,,-67,124,1040,420,-210,-560,105,-87,-258
19:07:44.710,,-64,125,1038,560,-560,-840,106,-84,-267
19:07:44.729,,-62,119,1035,70,-560,-700,109,-85,-273
19:07:44.748,,-62,117,1037,-630,-420,-350,91,-85,-267
19:07:44.767,,-61,114,1038,-910,-420,0,96,-87,-273
19:07:44.785,,-63,119,1037,-630,-420,140,103,-85,-277
19:07:44.804,,-65,122,1040,-560,-630,140,90,-81,-261
19:07:44.823,,-62,124,1037,-630,-910,0,96,-84,-268
19:07:44.842,,-61,124,1037,-560,-980,-70,91,-85,-258
19:07:44.861,,-60,126,1041,-560,-1120,-70,94,-82,-268
19:07:44.879,,-60,123,1044,-840,-1190,-70,102,-79,-265
19:07:44.898,,-56,122,1045,-980,-1190,-140,97,-84,-264
19:07:44.917,,-55,126,1044,-1190,-910,-140,94,-81,-264
19:07:44.936,,-57,122,1046,-1470,-770,-70,94,-84,-265
19:07:44.954,,-58,124,1050,-1260,-700,-140,102,-78,-276
19:07:44.973,,-57,124,1050,-560,-980,-140,85,-79,-265
19:07:44.992,,-53,127,1052,70,-980,-210,99,-82,-262
19:07:45.011,,-51,128,1050,-210,-770,-350,94,-76,-265
19:07:45.029,,-51,127,1049,-840,-280,-490,102,-79,-264
19:07:45.048,,-54,126,1043,-1260,140,-700,102,-87,-276
19:07:45.067,,-59,124,1038,-1400,280,-840,94,-85,-267
19:07:45.086,,-60,122,1039,-1190,-210,-840,108,-87,-267
19:07:45.105,,-59,121,1036,-770,-980,-840,97,-84,-259
19:07:45.123,,-55,121,1039,-280,-1540,-1050,99,-87,-256
19:07:45.142,,-56,119,1045,-70,-1680,-1050,100,-82,-256
19:07:45.161,,-55,118,1047,-210,-1540,-980,100,-90,-261
19:07:45.180,,-55,120,1049,-630,-1190,-840,99,-82,-262
19:07:45.199,,-55,118,1050,-770,-770,-840,100,-84,-265
19:07:45.217,,-56,119,1049,-420,-280,-770,91,-84,-270
19:07:45.236,,-58,117,1053,-420,0,-910,105,-79,-259
19:07:45.255,,-58,115,1047,-490,-70,-980,100,-87,-262
19:07:45.274,,-59,119,1040,-630,0,-840,100,-93,-270
19:07:45.292,,-61,118,1044,-910,-140,-490,93,-78,-268
19:07:45.311,,-62,119,1044,-490,-490,-350,96,-82,-270
19:07:45.330,,-61,126,1042,350,-630,-420,97,-84,-273
19:07:45.349,,-57,124,1043,-70,-490,-700,90,-87,-270
19:07:45.368,,-60,116,1040,-700,-210,-770,96,-85,-274
19:07:45.386,,-62,114,1042,-770,-140,-700,100,-79,-264
19:07:45.405,,-64,114,1042,-700,-560,-350,99,-85,-265
19:07:45.424,,-64,114,1042,-700,-560,-350,96,-79,-270
19:07:45.443,,-64,117,1045,-140,-1050,-70,99,-87,-261
19:07:45.461,,-61,122,1050,280,-1190,-70,99,-85,-255
19:07:45.480,,-57,126,1051,0,-840,-280,97,-82,-265
19:07:45.499,,-57,122,1053,-770,-210,-280,100,-78,-258
19:07:45.518,,-59,117,1053,-1050,140,-210,100,-81,-261
19:07:45.537,,-60,120,1050,-490,280,-140,105,-85,-267
19:07:45.555,,-58,123,1047,-490,280,-70,106,-87,-267
19:07:45.574,,-55,119,1044,-980,490,140,106,-81,-268
19:07:45.593,,-56,124,1046,-700,700,210,99,-88,-262
19:07:45.612,,-58,126,1041,-490,560,70,97,-91,-264
19:07:45.630,,-59,123,1037,-490,420,-280,97,-91,-264
19:07:45.649,,-59,124,1041,-350,210,-490,96,-93,-261
19:07:45.668,,-56,120,1041,-700,-140,-420,99,-88,-259
19:07:45.687,,-55,120,1044,-560,-350,-280,103,-88,-258
19:07:45.706,,-58,123,1042,-490,-280,-350,94,-91,-267
19:07:45.724,,-59,126,1042,-630,-280,-560,109,-90,-258
19:07:45.743,,-62,123,1042,-840,-140,-770,103,-85,-258
19:07:45.762,,-64,121,1047,-770,-140,-910,97,-84,-265
19:07:45.781,,-63,119,1048,-840,-350,-840,103,-84,-253
19:07:45.800,,-60,119,1047,-490,-630,-630,100,-84,-262
19:07:45.818,,-59,123,1049,0,-560,-770,102,-79,-267
19:07:45.837,,-63,122,1045,-350,-210,-910,114,-78,-268
19:07:45.856,,-64,118,1042,-700,-210,-980,96,-85,-265
19:07:45.875,,-63,118,1041,-770,-210,-840,96,-84,-264
19:07:45.893,,-65,117,1046,-560,-420,-700,108,-85,-270
19:07:45.912,,-63,117,1048,-140,-770,-560,100,-87,-259
19:07:45.931,,-61,119,1047,-70,-630,-560,102,-87,-267
19:07:45.950,,-61,118,1044,-420,-420,-490,102,-84,-268
19:07:45.969,,-63,116,1044,-700,-140,-560,96,-90,-271
19:07:45.987,,-63,117,1044,-700,-140,-560,100,-88,-265
19:07:46.006,,-62,117,1040,-700,-350,-420,96,-85,-262
19:07:46.025,,-59,118,1042,-490,-490,-280,103,-85,-267
19:07:46.044,,-60,119,1044,-420,-560,-140,97,-82,-268
19:07:46.062,,-60,119,1045,-420,-630,-140,102,-90,-271
19:07:46.081,,-59,122,1044,-280,-770,-140,102,-88,-264
19:07:46.100,,-58,124,1042,-420,-700,-350,102,-82,-265
19:07:46.119,,-58,124,1042,-630,-420,-490,103,-84,-265
19:07:46.138,,-62,122,1044,-910,-280,-700,97,-87,-262
19:07:46.156,,-61,119,1047,-980,-490,-910,91,-84,-264
19:07:46.175,,-61,117,1047,-980,-700,-910,91,-79,-262
19:07:46.194,,-60,117,1050,-840,-770,-840,97,-82,-268
19:07:46.213,,-61,122,1055,-420,-630,-770,94,-82,-264
19:07:46.224,<gest4_cross_right,,,,,,,,,
19:07:46.231,,-61,123,1056,-280,-350,-770,100,-91,-268
19:07:46.250,,-62,122,1056,-420,0,-770,99,-84,-270
19:07:46.269,,-63,120,1056,-210,280,-840,102,-88,-253
19:07:46.288,,-66,122,1055,70,490,-700,108,-87,-265
19:07:46.307,,-65,123,1051,210,490,-630,108,-90,-259
19:07:46.325,,-64,122,1049,420,490,-630,97,-81,-265
19:07:46.344,,-66,123,1044,420,560,-770,97,-79,-264
19:07:46.363,,-66,118,1042,420,420,-770,102,-81,-262
19:07:46.382,,-65,117,1043,490,280,-560,100,-87,-267
19:07:46.400,,-64,116,1041,560,70,-350,102,-87,-256
19:07:46.419,,-64,118,1038,700,140,-350,97,-87,-270
19:07:46.438,,-65,119,1040,350,210,-280,99,-79,-262
19:07:46.457,,-65,118,1038,-210,140,-280,99,-79,-259
19:07:46.476,,-63,120,1035,-490,210,-350,99,-84,-261
19:07:46.494,,-60,122,1037,-840,280,-490,96,-82,-264
19:07:46.513,,-63,119,1034,-910,280,-420,99,-82,-268
19:07:46.532,,-66,123,1037,-420,-70,-490,102,-78,-274
19:07:46.551,,-66,125,1041,-280,-560,-560,91,-88,-271
19:07:46.569,,-66,128,1044,-280,-980,-420,96,-82,-265
19:07:46.588,,-65,132,1047,-280,-910,-560,96,-82,-265
19:07:46.607,,-64,129,1050,-560,-630,-840,94,-78,-268
19:07:46.626,,-65,125,1048,-630,-350,-1260,91,-82,-274
19:07:46.645,,-65,124,1048,-770,0,-1540,90,-82,-271
19:07:46.663,,-69,116,1046,-1400,280,-1190,99,-84,-258
19:07:46.682,,-72,115,1044,-1820,700,-700,102,-88,-262
19:07:46.701,,-78,114,1044,-2100,1190,0,100,-78,-271
19:07:46.720,,-83,109,1044,-2100,1540,700,94,-82,-267
19:07:46.739,,-82,108,1052,-1750,1400,1260,100,-81,-270
19:07:46.757,,-73,108,1054,-1400,1190,1330,102,-81,-258
19:07:46.776,,-64,111,1059,-1540,1540,1330,94,-78,-264
19:07:46.795,,-60,106,1056,-2520,2590,1330,96,-79,-262
19:07:46.814,,-60,104,1051,-3150,3850,1540,100,-82,-270
19:07:46.832,,-65,108,1039,-3220,4550,1960,97,-82,-268
19:07:46.851,,-64,113,1029,-3010,4200,2170,97,-76,-268
19:07:46.870,,-65,122,1024,-2590,3290,2030,97,-76,-267
19:07:46.889,,-62,128,1023,-2380,2240,1610,99,-78,-262
19:07:46.908,,-61,134,1025,-2240,1330,840,100,-84,-271
19:07:46.926,,-63,131,1029,-2590,840,210,103,-82,-270
19:07:46.945,,-66,127,1037,-2450,0,-420,106,-76,-265
19:07:46.964,,-72,128,1041,-1610,-770,-1120,100,-84,-262
19:07:46.983,,-72,129,1045,-1190,-1470,-1680,111,-70,-270
19:07:47.001,,-74,126,1048,-1260,-1890,-2170,99,-78,-276
19:07:47.020,,-78,122,1052,-980,-2030,-2590,99,-82,-267
19:07:47.039,,-78,119,1056,-560,-2310,-3010,103,-82,-264
19:07:47.058,,-77,114,1057,140,-2590,-3360,105,-81,-265
19:07:47.076,,-76,112,1057,980,-2660,-3570,106,-87,-271
19:07:47.095,,-82,109,1050,840,-2030,-3570,102,-81,-276
19:07:47.114,,-86,104,1047,70,-1470,-3290,96,-75,-267
19:07:47.133,,-91,96,1044,-210,-1120,-3010,108,-79,-262
19:07:47.152,,-91,94,1042,0,-1330,-2800,102,-82,-264
19:07:47.170,,-85,90,1042,70,-1820,-2380,99,-79,-261
19:07:47.189,,-84,89,1040,70,-1820,-1680,103,-87,-267
19:07:47.208,,-84,89,1040,-280,-1330,-770,96,-82,-262
19:07:47.227,,-85,95,1045,-280,-1330,-770,105,-84,-264
19:07:47.246,,-84,97,1049,-980,-840,0,106,-76,-261
19:07:47.264,,-85,104,1046,-1190,-700,350,102,-81,-264
19:07:47.283,,-83,105,1046,-1050,-700,630,100,-85,-256
19:07:47.302,,-83,107,1049,-1050,-770,840,99,-85,-274
19:07:47.321,,-77,105,1051,-980,-1050,1120,105,-79,-273
19:07:47.339,,-74,111,1059,-490,-1050,1540,103,-78,-271
19:07:47.358,,-71,114,1063,-420,-770,1890,103,-85,-273
19:07:47.377,,-70,119,1065,-210,-280,1890,102,-78,-274
19:07:47.396,,-69,122,1062,70,280,1680,91,-76,-268
19:07:47.415,,-71,121,1054,70,630,1120,99,-75,-273
19:07:47.433,,-71,118,1053,210,770,630,100,-82,-267
19:07:47.452,,-67,113,1053,420,840,490,99,-78,-265
19:07:47.471,,-63,108,1049,350,980,350,99,-81,-262
19:07:47.490,,-64,106,1048,350,1260,280,103,-84,-265
19:07:47.508,,-69,106,1043,350,1400,420,105,-84,-268
19:07:47.527,,-75,108,1037,700,1190,490,106,-79,-268
19:07:47.546,,-76,113,1035,700,980,630,106,-79,-268
