Sensors' Acquisition [Hz]: Acc@52.0 Gyro@52.0 Mag@52.0 
hh:mm:ss.ms, Annotation , AccX [mg], AccY, AccZ, GyroX [mdps], GyroY, GyroZ, MagX [mgauss], MagY, MagZ
18:35:55.386,,-188,4,1024,210,-350,-1260,-169,136,-408
18:35:55.405,,-190,7,1025,490,-700,-630,-166,129,-411
18:35:55.424,,-191,15,1027,840,-840,-420,-174,139,-409
18:35:55.442,,-190,22,1027,910,-700,-560,-169,138,-408
18:35:55.461,,-188,25,1026,420,-140,-770,-174,138,-400
18:35:55.480,,-186,22,1025,-350,630,-910,-177,142,-408
18:35:55.499,,-185,18,1020,-840,1190,-1120,-181,139,-403
18:35:55.518,,-187,16,1016,-840,1400,-1260,-175,141,-409
18:35:55.536,,-189,12,1014,-1050,1050,-1330,-178,136,-412
18:35:55.555,,-192,10,1011,-1330,350,-1400,-172,136,-403
18:35:55.574,,-192,8,1014,-1400,-420,-1330,-178,136,-408
18:35:55.593,,-191,9,1019,-1610,-910,-1050,-171,139,-406
18:35:55.611,,-191,10,1022,-1960,-1260,-840,-175,138,-411
18:35:55.630,,-191,9,1024,-2170,-1540,-560,-187,136,-412
18:35:55.649,,-193,12,1030,-1960,-1890,-210,-178,135,-417
18:35:55.668,,-190,17,1040,-1820,-2240,70,-172,138,-409
18:35:55.687,,-184,22,1044,-1890,-2450,350,-169,138,-406
18:35:55.705,,-180,25,1054,-1540,-2170,420,-180,127,-405
18:35:55.724,,-178,29,1059,-770,-1610,-70,-174,126,-403
18:35:55.743,,-178,29,1059,0,-840,-910,-171,139,-408
18:35:55.762,,-176,32,1056,0,-840,-910,-181,141,-408
18:35:55.780,,-180,31,1050,210,140,-1540,-177,139,-414
18:35:55.799,,-183,24,1041,-280,770,-2030,-174,136,-411
18:35:55.818,,-186,14,1032,-560,1120,-2170,-175,138,-418
18:35:55.837,,-191,2,1027,-490,1050,-2100,-177,129,-414
18:35:55.856,,-193,-2,1021,280,490,-1890,-183,142,-415
18:35:55.874,,-192,2,1019,980,-280,-1400,-171,144,-411
18:35:55.893,,-193,7,1016,280,-840,-490,-169,135,-412
18:35:55.912,,-193,9,1021,-420,-1470,210,-177,136,-417
18:35:55.931,,-191,16,1025,-420,-1820,420,-178,144,-408
18:35:55.950,,-185,21,1028,0,-1960,420,-171,126,-400
18:35:55.968,,-180,26,1036,0,-1400,280,-171,126,-400
18:35:55.987,,-177,26,1038,-700,-700,70,-171,124,-403
18:35:56.006,,-176,23,1036,-1400,-280,-280,-172,130,-409
18:35:56.025,,-176,20,1036,-1470,-280,-840,-171,136,-415
18:35:56.043,,-181,18,1035,-1190,-630,-1190,-175,139,-411
18:35:56.062,,-183,17,1039,-630,-1120,-1470,-183,138,-409
18:35:56.081,,-184,17,1044,-350,-1330,-1610,-180,135,-408
18:35:56.100,,-185,15,1041,-350,-1050,-1610,-171,138,-411
18:35:56.119,,-188,15,1040,-140,-350,-1540,-174,136,-406
18:35:56.137,,-192,12,1034,-280,280,-1330,-174,129,-403
18:35:56.156,,-193,8,1026,-350,420,-980,-166,127,-400
18:35:56.175,,-191,8,1023,-350,210,-560,-172,135,-405
18:35:56.194,,-187,6,1020,-350,-140,-70,-171,135,-406
18:35:56.213,,-184,10,1026,-70,-350,210,-178,141,-412
18:35:56.231,,-183,12,1030,-280,-560,420,-171,136,-409
18:35:56.250,,-181,17,1031,-420,-490,350,-174,135,-408
18:35:56.269,,-183,24,1032,-420,-280,70,-168,136,-408
18:35:56.288,,-183,23,1032,-910,0,-350,-180,141,-405
18:35:56.306,,-185,19,1030,-560,-70,-1120,-177,136,-402
18:35:56.325,,-187,14,1030,140,-210,-1610,-171,138,-402
18:35:56.344,,-188,10,1027,70,-350,-1610,-180,133,-402
18:35:56.363,,-186,1,1030,-560,-350,-1050,-177,136,-402
18:35:56.382,,-185,1,1035,-350,-350,-420,-172,136,-402
18:35:56.400,,-189,11,1031,280,-280,280,-175,136,-406
18:35:56.419,,-191,18,1029,140,-140,630,-175,132,-403
18:35:56.438,,-191,24,1028,-70,70,770,-177,136,-403
18:35:56.457,,-190,26,1028,-280,0,490,-169,129,-406
18:35:56.476,,-185,24,1031,-280,-210,210,-177,135,-403
18:35:56.494,,-184,23,1033,-210,-490,0,-171,132,-414
18:35:56.513,,-180,19,1036,70,-630,-140,-171,135,-406
18:35:56.532,,-177,19,1035,770,-490,-420,-172,136,-408
18:35:56.551,,-177,22,1035,770,0,-560,-177,138,-417
18:35:56.570,,-177,17,1030,0,490,-560,-180,130,-414
18:35:56.588,,-180,18,1027,-140,840,-630,-174,135,-412
18:35:56.607,,-183,21,1023,70,770,-700,-175,135,-403
18:35:56.626,,-183,23,1022,490,350,-980,-177,136,-406
18:35:56.645,,-184,25,1019,560,70,-1260,-172,136,-402
18:35:56.663,,-183,23,1019,280,-350,-1330,-174,139,-411
18:35:56.682,,-182,24,1022,490,-770,-1470,-175,141,-408
18:35:56.701,,-183,28,1022,490,-980,-1680,-184,141,-408
18:35:56.720,,-182,29,1028,0,-1120,-1890,-172,142,-402
18:35:56.739,,-184,23,1029,-350,-1330,-2170,-172,130,-397
18:35:56.757,,-185,25,1033,70,-1400,-2380,-177,132,-403
18:35:56.776,,-184,25,1033,210,-1260,-2590,-174,132,-405
18:35:56.795,,-185,28,1034,0,-980,-2660,-175,132,-402
18:35:56.814,,-183,26,1032,-140,-840,-2730,-178,127,-403
18:35:56.833,,-181,31,1032,490,-980,-2870,-189,136,-405
18:35:56.851,,-178,42,1024,910,-1260,-2940,-183,147,-411
18:35:56.870,,-174,53,1019,980,-1680,-3290,-178,138,-409
18:35:56.889,,-173,60,1018,1260,-2380,-4130,-183,129,-408
18:35:56.907,>gest3_circle_cw,,,,,,,,,
18:35:56.908,,-173,72,1016,1610,-3150,-5460,-187,135,-418
18:35:56.926,,-179,85,1011,1120,-3780,-7070,-174,130,-402
18:35:56.945,,-188,76,1015,-280,-4830,-9100,-174,130,-393
18:35:56.964,,-185,58,1025,280,-6440,-11550,-180,127,-393
18:35:56.983,,-181,43,1041,1820,-7560,-13230,-172,136,-415
18:35:57.002,,-175,20,1049,1610,-7700,-14070,-184,139,-417
18:35:57.020,,-171,-5,1064,980,-6720,-13930,-183,141,-406
18:35:57.039,,-171,-24,1069,840,-5390,-12950,-186,141,-400
18:35:57.058,,-170,-35,1069,1400,-3920,-11270,-187,141,-400
18:35:57.077,,-173,-32,1063,2030,-2170,-9380,-184,142,-400
18:35:57.096,,-179,-21,1048,2310,-560,-7490,-189,135,-396
18:35:57.114,,-187,-6,1036,1890,560,-5880,-190,133,-400
18:35:57.133,,-192,7,1022,1680,630,-4830,-189,127,-397
18:35:57.152,,-197,28,1003,2240,70,-4550,-189,144,-396
18:35:57.171,,-197,47,987,3010,-1190,-4970,-192,141,-399
18:35:57.189,,-198,69,970,3920,-2870,-6090,-192,142,-391
18:35:57.208,,-196,91,949,3850,-5040,-7910,-195,139,-397
18:35:57.227,,-184,83,932,2730,-7980,-10570,-193,141,-396
18:35:57.246,,-173,55,933,2030,-11130,-13650,-199,139,-394
18:35:57.265,,-151,15,963,1470,-14630,-16030,-204,141,-397
18:35:57.283,,-144,-29,972,140,-17430,-16380,-207,142,-397
18:35:57.302,,-139,-68,980,-840,-19810,-14560,-204,147,-399
18:35:57.321,,-147,-101,994,-1050,-21490,-11480,-202,136,-393
18:35:57.340,,-159,-104,1009,-770,-22400,-8260,-208,130,-393
18:35:57.359,,-195,-147,998,-6160,-22120,-4550,-201,136,-391
18:35:57.377,,-240,-258,975,-12810,-22120,210,-192,135,-391
18:35:57.396,,-285,-379,962,-14280,-23660,7700,-195,126,-391
18:35:57.415,,-293,-471,996,-11760,-29050,20510,-193,117,-384
18:35:57.434,,-292,-493,1119,-8120,-35420,40180,-183,111,-384
18:35:57.452,,-287,-451,1247,-4830,-38850,64470,-183,114,-378
18:35:57.471,,-281,-390,1379,350,-39200,87080,-183,97,-375
18:35:57.490,,-277,-320,1537,5740,-35560,105280,-172,93,-384
18:35:57.509,,-249,-291,1759,13650,-28280,119770,-157,76,-385
18:35:57.528,,-181,-237,1967,28350,-18340,131180,-151,51,-372
18:35:57.546,,-181,-237,1967,28350,-18340,131180,-141,58,-376
18:35:57.565,,-45,-108,1998,47600,-3080,139510,-135,46,-372
18:35:57.584,,182,45,1998,63420,20160,144410,-124,46,-369
18:35:57.603,,392,206,1927,72100,53480,146650,-117,51,-375
18:35:57.622,,512,377,1846,70210,93170,143920,-108,61,-394
18:35:57.640,,557,434,1751,62790,127750,137270,-108,73,-406
18:35:57.659,,561,439,1580,63980,149660,125930,-99,85,-408
18:35:57.678,,545,491,1395,78820,160300,110110,-111,100,-408
18:35:57.697,,527,565,1214,99050,163380,86660,-115,112,-417
18:35:57.716,,498,622,1055,117950,163380,57680,-136,138,-429
18:35:57.734,,471,646,881,131740,161420,25200,-151,163,-427
18:35:57.753,,455,625,693,138740,158620,-8260,-183,186,-429
18:35:57.772,,410,548,500,141750,155470,-39550,-192,204,-429
18:35:57.791,,352,447,334,144270,149030,-67340,-217,229,-411
18:35:57.809,,318,404,215,144900,138110,-89880,-244,252,-411
18:35:57.828,,272,357,93,139650,124880,-107450,-264,289,-403
18:35:57.847,,193,333,-19,127260,109620,-121940,-279,307,-396
18:35:57.866,,80,325,-152,109130,90230,-131740,-279,339,-388
18:35:57.885,,-71,259,-312,90440,66080,-138110,-304,357,-367
18:35:57.903,,-240,205,-453,72940,38640,-147210,-306,373,-370
18:35:57.922,,-373,111,-569,51940,7910,-158410,-312,387,-366
18:35:57.941,,-449,-2,-596,30800,-26180,-166040,-309,402,-357
18:35:57.960,,-533,-129,-551,14000,-61460,-164010,-309,402,-357
18:35:57.979,,-617,-208,-442,1890,-98490,-154630,-306,408,-363
18:35:57.997,,-684,-262,-283,-11130,-133700,-141890,-301,409,-372
18:35:58.016,,-700,-296,-82,-31570,-163800,-127750,-286,405,-376
18:35:58.035,,-742,-420,173,-54250,-184730,-113330,-285,394,-379
18:35:58.054,,-843,-505,452,-70140,-197260,-100310,-279,378,-391
18:35:58.072,,-878,-565,700,-80780,-205450,-81480,-258,357,-403
18:35:58.091,,-782,-661,969,-90020,-209650,-57890,-250,342,-405
18:35:58.110,,-610,-845,1278,-93870,-208880,-35840,-252,310,-424
18:35:58.129,,-468,-967,1544,-84700,-199010,-16800,-235,286,-423
18:35:58.148,,-346,-909,1763,-62720,-178710,2450,-225,267,-427
18:35:58.166,,-261,-788,1877,-44170,-149380,26250,-207,241,-423
18:35:58.185,,-200,-625,1929,-38220,-115850,48720,-211,234,-424
18:35:58.204,,-158,-478,1896,-36330,-81760,67620,-210,205,-424
18:35:58.223,,-151,-305,1779,-33110,-52850,81410,-190,198,-424
18:35:58.242,,-127,-144,1629,-30660,-33110,89600,-187,184,-427
18:35:58.260,,-76,-44,1508,-27300,-22050,93100,-177,166,-433
18:35:58.279,,-19,45,1413,-16100,-15540,92190,-165,160,-429
18:35:58.298,,26,187,1334,-3500,-9380,87150,-162,159,-427
18:35:58.317,,26,302,1261,210,-2590,78750,-159,147,-432
18:35:58.336,,31,340,1203,-2310,2520,67550,-151,141,-423
18:35:58.354,,32,338,1140,-1750,6090,54600,-145,148,-433
18:35:58.373,,16,351,1100,3640,8680,41370,-145,141,-436
18:35:58.392,,-15,345,1068,7980,9870,28770,-154,150,-430
18:35:58.411,,-50,310,1026,8120,9380,16450,-147,153,-439
18:35:58.429,,-105,243,999,7070,7980,5740,-144,148,-435
18:35:58.448,,-155,170,978,6090,5600,-2520,-150,145,-430
18:35:58.467,,-190,84,967,5740,2660,-7490,-147,150,-433
18:35:58.486,,-210,25,970,6930,70,-9800,-151,150,-427
18:35:58.505,,-231,-2,979,8050,-1260,-9870,-154,147,-427
18:35:58.523,,-253,-18,975,6930,-1610,-8540,-160,151,-430
18:35:58.542,,-253,-31,971,4830,-1890,-6790,-153,156,-421
18:35:58.561,,-252,-38,976,2800,-1400,-4970,-154,153,-430
18:35:58.580,,-252,-38,976,1120,-1120,-3500,-150,148,-423
18:35:58.599,,-255,-45,976,0,-910,-2520,-157,151,-432
18:35:58.617,,-257,-44,982,280,-1190,-2380,-159,150,-426
18:35:58.636,,-252,-45,991,0,-1540,-2380,-153,159,-426
18:35:58.655,,-250,-44,998,-1120,-1820,-1820,-162,145,-430
18:35:58.674,,-248,-52,1010,-1890,-1890,-1260,-156,154,-426
18:35:58.693,,-250,-44,1016,-1960,-1680,-1260,-150,156,-427
18:35:58.711,,-257,-36,1023,-2100,-1120,-1260,-157,154,-427
18:35:58.730,,-264,-36,1030,-2380,-840,-1330,-156,147,-426
18:35:58.749,,-268,-40,1036,-2170,-980,-1190,-154,156,-424
18:35:58.768,,-265,-40,1038,-700,-1330,-630,-157,157,-424
18:35:58.786,,-263,-30,1047,1260,-1400,420,-159,148,-426
18:35:58.805,,-261,-26,1042,1750,-1400,1470,-160,148,-417
18:35:58.824,,-251,-22,1037,2660,-1260,2380,-147,151,-423
18:35:58.843,,-245,-8,1033,3640,-210,3010,-159,154,-427
18:35:58.862,,-241,2,1028,3150,910,3500,-159,156,-432
18:35:58.880,,-240,0,1019,3010,1470,3290,-162,153,-430
18:35:58.899,,-237,7,1017,3570,1400,2240,-159,153,-435
18:35:58.918,,-226,6,1008,2170,770,1190,-162,151,-432
18:35:58.937,,-211,-9,1008,350,280,700,-169,153,-429
18:35:58.956,,-208,-13,1008,350,490,420,-159,151,-424
18:35:58.974,,-209,-7,1000,980,910,70,-159,151,-424
18:35:58.993,,-214,-9,997,630,1540,-280,-163,151,-423
18:35:59.012,,-217,-8,991,840,1610,-490,-157,148,-426
18:35:59.031,,-223,0,990,1190,1540,-490,-160,153,-423
18:35:59.049,,-229,8,990,490,1120,-280,-154,159,-426
18:35:59.068,,-236,7,996,-840,630,0,-163,148,-420
18:35:59.087,,-238,10,1001,-1050,-70,0,-153,151,-424
18:35:59.106,,-238,12,1002,-210,-770,-280,-160,148,-423
18:35:59.125,,-237,19,1006,560,-1190,-980,-154,153,-420
18:35:59.143,,-234,17,1005,-630,-1470,-1680,-165,148,-414
18:35:59.162,,-232,-1,1004,-2450,-1820,-2100,-160,148,-421
18:35:59.181,,-228,-17,1016,-2450,-2450,-2520,-144,159,-421
18:35:59.200,,-226,-18,1017,-1400,-3010,-2730,-157,148,-424
18:35:59.219,,-224,-17,1013,-980,-3360,-2310,-154,147,-420
18:35:59.237,,-226,-17,1016,-1120,-3080,-1610,-165,151,-424
18:35:59.256,,-233,-18,1017,-1470,-2450,-1050,-153,148,-414
18:35:59.275,,-239,-19,1016,-1400,-1750,-630,-156,148,-426
18:35:59.294,,-246,-18,1019,-980,-1120,-350,-160,145,-430
18:35:59.312,,-249,-14,1020,-1120,-630,-280,-153,145,-429
18:35:59.331,,-249,-14,1020,-1120,-630,-70,-150,142,-424
18:35:59.350,,-250,-19,1019,-1750,-140,-70,-157,145,-423
18:35:59.369,,-251,-20,1018,-2030,140,140,-157,142,-423
18:35:59.388,,-249,-15,1017,-2450,350,560,-150,153,-418
18:35:59.406,,-247,-22,1015,-2660,140,1050,-156,153,-423
18:35:59.425,,-247,-14,1019,-1890,70,1050,-160,150,-432
18:35:59.444,,-245,-11,1019,-1540,-140,980,-160,148,-430
18:35:59.463,,-239,-8,1020,-1820,-560,840,-154,153,-418
18:35:59.482,,-233,-13,1021,-1890,-840,770,-151,151,-427
18:35:59.500,,-225,-4,1031,-980,-1050,420,-156,151,-424
18:35:59.519,,-222,-2,1027,-910,-770,0,-159,151,-427
18:35:59.538,,-220,-6,1024,-1050,0,-700,-153,150,-423
18:35:59.557,,-224,-7,1021,-700,910,-1120,-159,154,-429
18:35:59.576,,-230,-11,1010,-1120,1680,-1120,-159,144,-426
18:35:59.594,,-235,-17,1008,-1330,1610,-770,-156,154,-433
18:35:59.613,,-236,-16,1002,-490,980,-490,-154,153,-430
18:35:59.632,,-242,-8,999,280,280,-210,-156,154,-426
18:35:59.651,,-246,-7,997,490,-700,-420,-156,150,-433
18:35:59.669,,-250,-4,998,910,-1680,-980,-151,145,-423
18:35:59.688,,-248,-2,1005,1050,-2380,-1540,-154,145,-427
18:35:59.707,,-239,-3,1008,210,-2800,-1960,-154,150,-415
18:35:59.726,,-233,-14,1010,-420,-2660,-2240,-151,151,-432
18:35:59.745,,-231,-19,1018,-490,-2100,-2590,-153,154,-429
18:35:59.763,,-230,-24,1016,-980,-1470,-2800,-157,151,-427
18:35:59.782,,-228,-34,1014,-2030,-980,-2380,-151,144,-433
18:35:59.801,,-228,-45,1015,-1890,-770,-1540,-154,153,-426
18:35:59.820,,-227,-37,1021,-630,-630,-560,-159,148,-423
18:35:59.839,,-231,-25,1021,-420,-420,210,-160,151,-436
18:35:59.857,,-234,-22,1019,-1400,-210,910,-156,150,-429
18:35:59.876,,-235,-14,1016,-1470,-140,1330,-153,145,-426
18:35:59.895,,-237,-2,1014,-1330,-70,1470,-154,153,-421
18:35:59.914,,-236,-2,1013,-1820,-210,1400,-157,145,-423
18:35:59.932,,-237,-6,1012,-1540,-630,840,-154,154,-427
18:35:59.951,,-234,-2,1017,-840,-1120,280,-151,148,-426
18:35:59.970,,-226,-4,1019,-910,-1890,-70,-156,144,-427
18:35:59.989,,-223,-5,1023,-840,-2310,-210,-156,144,-427
18:36:00.008,,-222,-4,1031,-420,-2240,-630,-154,145,-424
18:36:00.026,,-221,-7,1027,420,-1960,-1190,-156,150,-430
18:36:00.045,,-223,-5,1024,840,-1050,-1540,-153,148,-426
18:36:00.064,,-227,-16,1019,-140,140,-1820,-157,148,-426
18:36:00.083,,-233,-29,1012,-840,840,-1890,-160,154,-432
18:36:00.102,,-241,-28,1010,-910,840,-1470,-156,154,-423
18:36:00.120,,-246,-26,1006,-1260,70,-840,-157,147,-427
18:36:00.139,,-245,-24,1010,-1330,-980,-70,-165,150,-435
18:36:00.158,,-244,-16,1019,-910,-1680,280,-151,153,-423
18:36:00.177,,-241,-14,1024,-980,-2030,350,-150,153,-426
18:36:00.195,,-237,-15,1030,-980,-1820,280,-144,142,-424
18:36:00.214,,-231,-19,1031,-420,-1470,280,-154,144,-424
18:36:00.233,,-226,-14,1031,210,-840,350,-153,147,-424
18:36:00.252,,-222,-14,1023,-210,210,490,-154,151,-427
18:36:00.271,,-218,-18,1024,-910,1050,560,-154,145,-420
18:36:00.289,,-221,-15,1016,-1330,1400,630,-156,150,-429
18:36:00.308,,-228,-12,1008,-1400,1120,560,-148,144,-424
18:36:00.327,,-229,-5,1008,-980,420,280,-156,151,-433
18:36:00.346,,-229,0,1006,-1050,-280,70,-154,147,-433
18:36:00.420,,-229,-13,1025,70,-1960,-1260,-154,151,-430
18:36:00.421,,-229,-13,1025,70,-1960,-1260,-154,151,-430
18:36:00.421,,-229,-13,1025,70,-1960,-1260,-154,151,-430
18:36:00.421,,-229,-13,1025,70,-1960,-1260,-154,151,-430
18:36:00.440,,-223,-14,1027,70,-1750,-1330,-151,145,-427
18:36:00.459,,-219,-19,1027,-630,-1120,-1330,-153,150,-433
18:36:00.477,,-220,-21,1028,-840,-420,-1400,-159,148,-430
18:36:00.496,,-225,-23,1022,-630,0,-1470,-154,151,-427
18:36:00.515,,-229,-18,1020,-210,70,-1400,-154,145,-423
18:36:00.534,,-232,-13,1018,-350,-70,-1190,-147,151,-435
18:36:00.552,,-232,-13,1012,-770,-280,-1120,-154,148,-426
18:36:00.556,<gest3_circle_cw,,,,,,,,,
18:36:00.571,,-232,-11,1017,-770,-210,-1190,-156,145,-426
18:36:00.590,,-232,-17,1019,-1050,-210,-1470,-150,144,-427
18:36:00.609,,-232,-26,1014,-910,-420,-1540,-156,147,-414
18:36:00.628,,-232,-25,1018,-280,-420,-1330,-156,141,-420
18:36:00.646,,-229,-26,1018,-350,-420,-770,-154,144,-423
18:36:00.665,,-229,-20,1020,-560,-280,-350,-151,142,-421
18:36:00.684,,-231,-15,1018,-700,-140,-140,-153,145,-423
18:36:00.703,,-234,-10,1014,-910,0,-280,-154,141,-415
18:36:00.722,,-238,-12,1009,-770,-140,-630,-153,151,-421
18:36:00.740,,-238,-17,1006,-210,-210,-910,-150,145,-427
18:36:00.759,,-235,-19,1008,0,-140,-980,-156,139,-426
18:36:00.778,,-230,-26,1006,-560,-140,-840,-154,150,-417
18:36:00.797,,-227,-30,1005,-700,-280,-630,-151,150,-424
18:36:00.816,,-227,-28,1007,-910,-490,-350,-147,142,-415
18:36:00.834,,-227,-29,1009,-1610,-840,210,-156,142,-424
18:36:00.853,,-229,-25,1007,-1540,-1260,630,-148,148,-423
18:36:00.872,,-228,-15,1014,-910,-1540,910,-157,148,-430
18:36:00.891,,-227,-14,1015,-980,-1960,840,-154,147,-433
18:36:00.909,,-226,-10,1025,-560,-2100,490,-162,145,-426
18:36:00.928,,-225,-9,1026,-280,-1960,350,-153,151,-423
18:36:00.947,,-223,-7,1029,-280,-1470,280,-153,138,-420
18:36:00.966,,-221,-11,1027,-630,-840,0,-153,138,-420
18:36:00.985,,-222,-12,1019,-490,-70,-350,-148,139,-421
18:36:01.003,,-227,-9,1017,-630,560,-630,-160,145,-426
18:36:01.022,,-228,-19,1011,-1540,420,-840,-154,148,-426
18:36:01.041,,-229,-20,1009,-1400,-70,-910,-154,144,-430
18:36:01.060,,-230,-14,1010,-1190,-910,-840,-156,147,-430
18:36:01.078,,-228,-16,1013,-1610,-1540,-700,-154,139,-427
18:36:01.097,,-227,-20,1021,-1400,-1890,-630,-151,144,-420
18:36:01.116,,-222,-20,1029,-210,-1890,-770,-148,142,-418
18:36:01.135,,-222,-18,1029,-210,-1890,-770,-157,142,-429
18:36:01.154,,-221,-13,1029,-140,-1330,-910,-147,147,-417
18:36:01.172,,-222,-19,1028,-1120,-630,-770,-154,138,-427
18:36:01.191,,-227,-22,1026,-1190,-140,-700,-142,147,-430
18:36:01.210,,-230,-17,1024,-490,-70,-630,-162,142,-426
18:36:01.229,,-232,-15,1017,-420,-210,-420,-148,142,-420
18:36:01.248,,-231,-15,1022,-560,-280,-420,-154,148,-426
18:36:01.266,,-232,-18,1024,-420,-350,-630,-162,150,-427
18:36:01.285,,-231,-20,1023,-140,-350,-700,-153,144,-430
18:36:01.304,,-230,-24,1026,-420,-210,-490,-148,151,-429
18:36:01.323,,-224,-31,1021,-420,0,-210,-154,142,-429
18:36:01.342,,-219,-25,1020,70,420,0,-162,148,-426
18:36:01.360,,-218,-23,1018,-420,840,280,-145,150,-420
18:36:01.379,,-219,-15,1018,-1050,910,350,-148,142,-429
18:36:01.398,,-222,-7,1013,-1190,630,350,-157,151,-433
18:36:01.417,,-220,-2,1011,-1260,0,280,-165,147,-429
18:36:01.435,,-216,-2,1007,-1050,-350,-210,-150,150,-423
