Sensors' Acquisition [Hz]: Acc@52.0 Gyro@52.0 Mag@52.0 
hh:mm:ss.ms, Annotation , AccX [mg], AccY, AccZ, GyroX [mdps], GyroY, GyroZ, MagX [mgauss], MagY, MagZ
10:45:23.335,,-133,-1,1071,4620,-840,2170,289,232,-300
10:45:23.354,,-133,-1,1071,4620,-840,2170,288,234,-307
10:45:23.373,,-132,-1,1073,1960,-630,1190,280,235,-316
10:45:23.392,,-123,-16,1079,-910,-840,-210,285,240,-312
10:45:23.410,,-117,-35,1082,-1750,-1330,-210,279,244,-310
10:45:23.429,,-113,-35,1090,-770,-1960,1470,277,240,-313
10:45:23.448,,-109,-23,1086,1050,-2590,3360,276,234,-309
10:45:23.467,,-107,0,1085,3220,-2450,4340,280,240,-303
10:45:23.485,,-101,14,1085,4130,-1330,3920,271,235,-309
10:45:23.504,,-102,12,1072,3850,700,2940,274,235,-309
10:45:23.523,,-103,4,1060,3430,3080,2380,276,234,-312
10:45:23.542,,-104,-4,1047,3290,4690,2170,277,238,-313
10:45:23.561,,-96,-5,1038,3290,5250,1820,277,228,-297
10:45:23.579,,-91,-9,1029,2800,5390,1610,279,237,-303
10:45:23.598,,-95,-4,1023,1960,5390,1680,268,235,-312
10:45:23.617,,-102,-2,1020,1120,4830,2450,273,237,-306
10:45:23.636,,-106,9,1024,1400,3360,3220,279,237,-310
10:45:23.654,,-106,30,1030,2450,1750,3150,276,243,-307
10:45:23.673,,-109,42,1026,2730,770,2240,276,234,-307
10:45:23.692,,-112,49,1029,2520,630,770,276,235,-310
10:45:23.711,,-116,48,1022,1680,980,-910,283,237,-306
10:45:23.729,,-125,39,1021,70,1400,-2520,285,244,-316
10:45:23.748,,-125,20,1026,-1260,910,-3780,282,244,-319
10:45:23.767,,-122,10,1022,-910,0,-4550,283,246,-319
10:45:23.786,,-125,8,1025,-210,-770,-4410,285,244,-319
10:45:23.805,,-131,0,1027,-420,-1470,-3990,282,237,-319
10:45:23.823,,-136,0,1033,-420,-2240,-3430,283,244,-336
10:45:23.842,,-137,5,1048,-490,-2940,-3290,285,249,-342
10:45:23.861,,-135,2,1044,-1190,-3360,-3360,295,249,-351
10:45:23.880,,-137,2,1049,-1190,-3290,-3080,295,249,-351
10:45:23.898,,-137,3,1055,-1330,-2870,-2800,288,253,-334
10:45:23.917,,-134,2,1054,-1540,-2380,-2450,292,252,-343
10:45:23.936,,-130,0,1051,-1680,-1680,-2170,288,252,-352
10:45:23.955,,-131,-1,1044,-1540,-840,-1960,291,252,-351
10:45:23.973,,-129,-5,1044,-1750,-420,-1540,285,258,-351
10:45:23.992,,-129,-9,1042,-1820,-420,-980,289,268,-351
10:45:24.011,,-126,-13,1044,-1400,-910,-350,300,258,-340
10:45:24.030,,-123,-5,1046,-140,-1540,630,282,262,-334
10:45:24.048,,-121,5,1055,420,-1960,1260,283,250,-328
10:45:24.067,,-118,15,1054,210,-2100,1260,285,256,-324
10:45:24.086,,-117,19,1056,-140,-2030,1190,282,252,-324
10:45:24.105,,-112,19,1056,0,-2030,630,280,261,-324
10:45:24.124,,-110,22,1055,140,-1890,0,280,262,-327
10:45:24.142,,-111,22,1054,0,-1680,-420,283,259,-321
10:45:24.161,,-115,17,1053,-490,-1610,-350,283,258,-312
10:45:24.180,,-109,13,1057,-140,-2030,-350,289,256,-313
10:45:24.199,,-108,14,1052,630,-2520,-630,294,253,-310
10:45:24.217,,-105,17,1060,980,-2660,-630,306,250,-306
10:45:24.236,,-105,11,1060,70,-2450,-700,327,255,-319
10:45:24.255,,-101,7,1064,-560,-2310,-910,318,249,-316
10:45:24.274,,-99,6,1066,-490,-2240,-1330,310,247,-319
10:45:24.292,,-95,3,1072,-560,-2310,-1470,307,250,-324
10:45:24.311,,-89,5,1076,0,-2030,-1190,303,249,-327
10:45:24.330,,-94,13,1070,980,-1120,-700,295,253,-325
10:45:24.349,,-95,19,1065,1470,-140,-770,292,258,-331
10:45:24.368,,-97,20,1058,1750,840,-1470,294,255,-336
10:45:24.386,,-96,15,1051,1470,1750,-2450,285,244,-325
10:45:24.405,,-95,9,1044,630,2240,-3290,280,241,-322
10:45:24.424,,-97,1,1039,-140,2310,-3430,277,246,-322
10:45:24.443,,-104,3,1040,140,1890,-3080,282,250,-325
10:45:24.460,>gest3_circle_cw,,,,,,,,,
10:45:24.461,,-106,10,1037,770,840,-2940,279,256,-327
10:45:24.480,,-106,23,1042,1400,-210,-3010,282,249,-309
10:45:24.499,,-112,31,1041,1960,-560,-3430,292,243,-298
10:45:24.518,,-119,32,1038,2520,-490,-3920,283,241,-313
10:45:24.536,,-127,29,1038,2590,-280,-4550,291,241,-316
10:45:24.555,,-127,18,1040,1960,-280,-5250,309,244,-333
10:45:24.574,,-122,6,1040,1120,-490,-5950,297,255,-334
10:45:24.593,,-122,-5,1040,490,-280,-5740,309,250,-327
10:45:24.612,,-126,-7,1039,700,0,-4830,303,252,-324
10:45:24.630,,-130,0,1035,1190,-140,-3990,300,249,-319
10:45:24.649,,-135,12,1035,1190,-630,-3500,295,252,-327
10:45:24.668,,-139,18,1035,1260,-1470,-3570,297,252,-321
10:45:24.687,,-134,29,1032,2310,-2380,-3990,298,259,-337
10:45:24.705,,-134,42,1026,2800,-2800,-4760,300,255,-336
10:45:24.724,,-137,46,1019,1960,-3360,-5880,297,258,-331
10:45:24.743,,-132,40,1022,1610,-4620,-7070,292,252,-324
10:45:24.762,,-136,46,1020,2660,-6020,-8680,276,255,-325
10:45:24.780,,-134,64,1017,3710,-8750,-9660,286,252,-325
10:45:24.799,,-131,74,1016,3710,-11270,-10850,288,255,-325
10:45:24.818,,-128,87,1011,2940,-13230,-12530,288,255,-325
10:45:24.837,,-128,93,996,1400,-14980,-14700,304,259,-315
10:45:24.856,,-130,91,983,-280,-16800,-17570,309,247,-307
10:45:24.874,,-137,94,962,-2800,-18830,-20930,325,232,-315
10:45:24.893,,-140,86,942,-5530,-21770,-24360,319,228,-328
10:45:24.912,,-119,52,953,-7350,-25550,-27650,310,231,-340
10:45:24.931,,-84,-10,980,-9380,-29680,-30240,316,226,-352
10:45:24.949,,-66,-76,1013,-11340,-32480,-30660,316,231,-345
10:45:24.968,,-61,-158,1051,-12670,-33950,-28000,313,217,-351
10:45:24.987,,-64,-245,1073,-11130,-34930,-22400,313,208,-343
10:45:25.006,,-68,-295,1108,-6510,-35070,-13440,318,205,-337
10:45:25.024,,-72,-341,1126,-6090,-34440,-2590,306,199,-355
10:45:25.043,,-78,-397,1147,-9310,-33880,10430,312,202,-352
10:45:25.062,,-82,-438,1190,-11690,-33250,25830,307,198,-352
10:45:25.081,,-75,-442,1249,-9870,-32270,43050,300,196,-357
10:45:25.100,,-76,-398,1306,-6650,-28910,60130,303,190,-343
10:45:25.118,,-74,-344,1354,-6650,-23450,76370,291,195,-345
10:45:25.137,,-74,-344,1354,-6650,-23450,76370,292,195,-349
10:45:25.156,,-80,-322,1394,-11480,-16450,91910,304,207,-346
10:45:25.175,,-59,-323,1470,-15050,-9800,107100,301,213,-357
10:45:25.193,,-22,-344,1533,-12880,-3360,122990,298,214,-355
10:45:25.212,,0,-313,1558,-2100,3360,138600,292,223,-349
10:45:25.231,,54,-255,1581,13300,8400,153580,268,237,-345
10:45:25.250,,105,-155,1614,27020,15190,164080,270,250,-339
10:45:25.268,,198,-32,1641,39130,24080,169960,241,258,-343
10:45:25.287,,285,124,1608,47040,36330,170800,217,277,-334
10:45:25.306,,327,282,1530,41580,52220,167370,199,294,-315
10:45:25.325,,347,292,1422,27440,66150,158130,186,295,-298
10:45:25.344,,350,232,1341,24640,78120,145110,163,304,-289
10:45:25.362,,322,208,1290,42560,87010,129920,153,313,-286
10:45:25.381,,330,219,1234,71680,90510,108500,129,324,-285
10:45:25.400,,342,292,1164,100240,93660,84840,105,337,-268
10:45:25.419,,353,390,1098,115710,97300,59290,90,352,-253
10:45:25.437,,348,444,990,114030,102060,34510,85,361,-238
10:45:25.456,,303,454,849,101920,107870,10430,81,369,-217
10:45:25.475,,271,388,704,90440,110250,-12810,87,376,-210
10:45:25.494,,219,289,575,91630,108570,-35000,99,384,-211
10:45:25.512,,183,282,479,106470,102690,-57750,102,391,-207
10:45:25.531,,154,345,411,119560,94640,-78190,99,402,-199
10:45:25.550,,104,390,348,120470,84280,-95410,99,408,-190
10:45:25.569,,42,420,327,109480,69860,-109480,102,399,-180
10:45:25.588,,-10,407,320,91560,51730,-119140,115,406,-175
10:45:25.606,,-64,361,278,73500,32200,-126910,133,417,-180
10:45:25.625,,-128,327,225,58520,12670,-132300,142,409,-186
10:45:25.644,,-243,300,230,47600,-7770,-134610,159,414,-192
10:45:25.663,,-278,241,263,39410,-29890,-135870,180,394,-195
10:45:25.681,,-282,151,293,31290,-51940,-135940,201,388,-205
10:45:25.700,,-262,94,348,22190,-71260,-137900,211,376,-219
10:45:25.719,,-271,19,413,10080,-84770,-138530,225,358,-225
10:45:25.738,,-330,-57,480,-4830,-92330,-137620,250,351,-222
10:45:25.756,,-397,-190,565,-20090,-96880,-132790,250,351,-222
10:45:25.775,,-410,-299,664,-31990,-100310,-126770,264,333,-243
10:45:25.794,,-434,-384,759,-42140,-100380,-116970,283,316,-249
10:45:25.813,,-489,-457,846,-53130,-97930,-103180,298,291,-264
10:45:25.832,,-528,-512,913,-62650,-95620,-87850,306,279,-273
10:45:25.850,,-574,-555,975,-66150,-93870,-70140,309,264,-276
10:45:25.869,,-586,-562,1022,-62090,-93870,-51100,324,267,-277
10:45:25.888,,-555,-517,1078,-52990,-95830,-33460,331,268,-283
10:45:25.907,,-525,-455,1122,-45990,-96460,-17290,337,253,-286
10:45:25.925,,-500,-410,1187,-43820,-96180,-2380,339,240,-286
10:45:25.944,,-452,-391,1256,-44520,-96110,11130,345,250,-294
10:45:25.963,,-406,-347,1348,-42350,-95200,24640,355,255,-309
10:45:25.982,,-349,-304,1441,-38010,-91770,38220,355,247,-307
10:45:26.000,,-297,-269,1495,-33180,-86240,50260,351,256,-313
10:45:26.019,,-218,-185,1569,-28140,-77910,59080,357,249,-316
10:45:26.038,,-137,-103,1626,-23170,-65870,65800,361,241,-312
10:45:26.057,,-69,-5,1641,-21140,-50260,70700,354,249,-315
10:45:26.076,,-26,80,1619,-22890,-32060,73220,351,255,-319
10:45:26.094,,15,110,1581,-24640,-14280,72030,352,262,-319
10:45:26.113,,43,139,1510,-20020,1750,66780,349,276,-318
10:45:26.132,,71,174,1400,-12530,14490,58450,345,276,-319
10:45:26.151,,87,197,1277,-7420,23940,48300,336,279,-309
10:45:26.169,,86,182,1152,-4690,29820,37940,339,285,-310
10:45:26.188,,76,136,1030,-1820,31430,28140,336,282,-313
10:45:26.207,,58,93,934,4830,29330,19180,330,300,-303
10:45:26.226,,64,51,879,10710,23240,11060,333,307,-309
10:45:26.244,,41,26,868,13020,17360,3990,331,307,-306
10:45:26.263,,17,-12,865,10710,10990,-1960,334,304,-298
10:45:26.282,,-38,-31,873,7350,5950,-6510,328,298,-306
10:45:26.301,,-71,-60,892,3640,-70,-8330,324,295,-306
10:45:26.320,,-102,-75,921,1680,-4060,-9310,327,298,-306
10:45:26.338,,-134,-74,965,1820,-5390,-10850,337,300,-298
10:45:26.357,,-159,-73,1007,2170,-4970,-13090,348,304,-303
10:45:26.376,,-169,-81,1041,2240,-4060,-14490,340,292,-298
10:45:26.395,,-172,-92,1055,1260,-2450,-14630,348,286,-295
10:45:26.413,,-188,-102,1069,-560,-700,-13930,343,291,-301
10:45:26.432,,-187,-119,1077,-2310,-770,-11830,352,295,-309
10:45:26.451,,-183,-121,1084,-1470,-980,-9450,351,300,-306
10:45:26.470,,-177,-115,1084,280,-980,-6930,357,300,-309
10:45:26.488,,-179,-95,1081,1400,-630,-4900,354,288,-313
10:45:26.507,,-169,-85,1076,490,-210,-2660,345,286,-298
10:45:26.526,,-170,-82,1061,-560,770,-1470,349,288,-315
10:45:26.545,,-172,-78,1047,-840,1400,-700,342,291,-310
10:45:26.564,,-171,-76,1031,280,1190,-630,348,300,-318
10:45:26.582,,-179,-71,1026,210,490,-1050,364,304,-315
10:45:26.601,,-179,-74,1036,-560,-1470,-1400,358,298,-316
10:45:26.620,,-171,-81,1051,-980,-3920,-910,354,289,-307
10:45:26.639,,-163,-77,1058,280,-5810,0,349,295,-310
10:45:26.657,,-158,-63,1063,2240,-6790,350,349,289,-322
10:45:26.676,,-142,-53,1069,3920,-7070,630,351,285,-321
10:45:26.695,,-138,-52,1069,4060,-5530,420,351,285,-321
10:45:26.714,,-134,-57,1064,3080,-3570,140,345,298,-316
10:45:26.732,,-130,-66,1061,1330,-1680,-210,351,285,-315
10:45:26.751,,-126,-77,1061,-350,-770,-490,333,292,-303
10:45:26.770,,-119,-81,1057,-980,-1120,-350,343,288,-319
10:45:26.789,,-115,-82,1059,140,-2170,770,339,291,-315
10:45:26.808,,-112,-72,1056,2380,-2590,1890,346,300,-319
10:45:26.826,,-123,-45,1060,3710,-2800,2660,351,298,-316
10:45:26.845,,-118,-43,1057,3570,-3430,3150,346,292,-313
10:45:26.864,,-116,-39,1053,3570,-2800,2170,339,289,-312
10:45:26.883,,-108,-45,1046,2380,-1610,1050,334,288,-315
10:45:26.901,,-102,-57,1046,350,-70,210,336,294,-315
10:45:26.920,,-102,-57,1046,350,-70,210,342,294,-310
10:45:26.939,,-102,-72,1046,-1120,1190,0,346,294,-319
10:45:26.958,,-102,-74,1041,-840,1680,-70,345,285,-307
10:45:26.977,,-107,-65,1035,350,1890,140,331,291,-303
10:45:26.995,,-113,-56,1036,1050,1890,700,333,285,-301
10:45:27.014,,-116,-55,1031,1820,1540,1190,325,285,-298
10:45:27.033,,-119,-46,1024,3500,1540,1050,334,298,-315
10:45:27.052,,-126,-37,1015,3640,2100,350,351,292,-312
10:45:27.070,,-129,-48,1014,1610,2310,-350,357,282,-321
10:45:27.089,,-127,-60,1018,-210,1820,-770,343,286,-315
10:45:27.108,,-122,-63,1023,-770,770,-980,340,288,-324
10:45:27.127,,-121,-58,1029,-420,-700,-770,337,286,-324
10:45:27.145,,-129,-50,1034,770,-1820,-210,345,294,-322
10:45:27.164,,-133,-37,1039,2030,-2590,-70,343,300,-321
10:45:27.183,,-134,-28,1039,2170,-2380,-560,345,297,-322
10:45:27.202,,-131,-34,1037,1680,-1470,-1260,351,294,-321
10:45:27.221,,-127,-44,1034,1820,-210,-2100,340,283,-322
10:45:27.239,,-124,-54,1032,1540,1120,-3150,343,286,-330
10:45:27.258,,-129,-63,1021,70,2310,-4060,339,298,-327
10:45:27.277,,-137,-79,1024,-2100,2380,-4130,352,301,-327
10:45:27.296,,-136,-88,1035,-3010,700,-3570,349,304,-318
10:45:27.314,,-135,-85,1037,-2310,-1470,-2590,340,294,-319
10:45:27.333,,-143,-68,1043,-980,-3290,-1190,337,288,-319
10:45:27.352,,-147,-57,1061,-140,-4760,-70,337,292,-327
10:45:27.371,,-138,-46,1073,1120,-5460,-70,331,294,-319
10:45:27.389,,-133,-36,1066,2310,-4480,-770,336,301,-330
10:45:27.408,,-133,-37,1059,2380,-2240,-1260,337,297,-324
10:45:27.427,,-136,-50,1050,1330,350,-1540,334,295,-318
10:45:27.446,,-134,-69,1048,-420,2170,-2310,330,282,-307
10:45:27.465,,-129,-86,1037,-2380,2520,-3220,333,292,-319
10:45:27.483,,-126,-92,1038,-2870,1750,-2590,331,300,-327
10:45:27.502,,-132,-78,1042,-1750,210,-350,339,295,-319
10:45:27.521,,-140,-53,1046,140,-1400,1610,334,294,-312
10:45:27.540,,-142,-26,1056,1400,-2450,1890,340,295,-315
10:45:27.543,<gest3_circle_cw,,,,,,,,,
10:45:27.558,,-138,-20,1062,840,-2520,840,334,288,-312
10:45:27.577,,-129,-26,1070,280,-1820,-420,337,276,-313
10:45:27.596,,-124,-38,1071,-560,-420,-1260,336,283,-313
10:45:27.615,,-124,-51,1075,-2170,910,-1890,336,292,-313
10:45:27.633,,-121,-71,1076,-3500,1190,-2730,336,292,-313
10:45:27.652,,-118,-76,1076,-3500,490,-3150,343,286,-313
10:45:27.671,,-122,-67,1074,-2380,-560,-2520,352,288,-313
10:45:27.690,,-131,-49,1080,-1470,-1400,-1400,349,274,-328
10:45:27.709,,-144,-30,1077,-980,-1890,-770,361,277,-334
10:45:27.727,,-152,-24,1080,-210,-2170,-1120,352,277,-355
10:45:27.746,,-150,-23,1080,700,-1890,-2170,358,285,-357
10:45:27.765,,-146,-35,1067,1120,-1050,-2940,361,298,-366
10:45:27.784,,-144,-55,1067,980,280,-3430,340,289,-348
10:45:27.802,,-140,-70,1062,700,1400,-3710,343,289,-340
10:45:27.821,,-137,-87,1058,910,1820,-3080,324,285,-336
10:45:27.840,,-132,-89,1053,1260,1960,-1890,331,288,-336
10:45:27.859,,-134,-84,1036,1400,2310,-560,330,294,-333
10:45:27.877,,-140,-72,1031,2170,2520,980,336,291,-324
10:45:27.896,,-140,-58,1029,2660,2170,1680,336,285,-322
10:45:27.915,,-131,-47,1021,2310,1750,1470,333,283,-318
10:45:27.934,,-132,-39,1007,1470,1820,1120,327,279,-318
10:45:27.953,,-133,-44,1010,-350,1680,770,333,288,-321
10:45:27.971,,-126,-51,1020,-1400,770,350,325,301,-327
10:45:27.990,,-126,-51,1025,-910,-70,0,327,300,-319
10:45:28.009,,-127,-42,1028,0,-770,-420,325,294,-315
10:45:28.028,,-135,-38,1026,210,-980,-700,325,280,-307
10:45:28.046,,-139,-36,1028,70,-980,-1260,321,279,-304
10:45:28.065,,-136,-42,1032,-630,-1050,-2170,318,274,-313
10:45:28.084,,-135,-53,1036,-1960,-770,-2940,324,282,-312
10:45:28.103,,-134,-69,1043,-2590,-630,-2800,331,286,-318
10:45:28.121,,-137,-72,1038,-2170,-840,-1890,333,288,-309
10:45:28.140,,-140,-67,1036,-1610,-1120,-1050,336,279,-295
10:45:28.159,,-144,-61,1045,-1680,-1470,-560,328,274,-295
10:45:28.178,,-146,-58,1053,-1960,-2170,-490,325,277,-297
10:45:28.197,,-144,-57,1061,-1820,-2800,-700,328,283,-300
10:45:28.215,,-139,-52,1070,-2170,-3080,-1120,330,286,-307
10:45:28.234,,-132,-57,1083,-2800,-3290,-1680,336,282,-294
10:45:28.253,,-129,-60,1093,-2660,-3360,-1750,331,277,-286
10:45:28.272,,-129,-60,1095,-1610,-2870,-1540,321,273,-289
10:45:28.290,,-131,-50,1095,-210,-1820,-1120,327,276,-297
10:45:28.309,,-139,-44,1088,140,-210,-1050,339,277,-307
10:45:28.328,,-144,-53,1079,-840,1120,-1610,343,291,-315
10:45:28.347,,-142,-65,1072,-1260,1750,-2310,346,285,-312
10:45:28.366,,-149,-67,1064,-210,1820,-1680,351,277,-300
10:45:28.384,,-154,-63,1053,1260,1400,-350,343,279,-307
10:45:28.403,,-157,-56,1043,2310,770,140,334,282,-307
10:45:28.422,,-156,-56,1040,2240,70,-210,345,285,-322
10:45:28.441,,-148,-64,1044,560,-630,-980,330,286,-322
10:45:28.459,,-139,-77,1049,-1190,-1400,-1120,343,297,-313
10:45:28.478,,-132,-80,1063,-840,-2030,-210,351,286,-316
