Sensors' Acquisition [Hz]: Acc@52.0 Gyro@52.0 Mag@52.0 
hh:mm:ss.ms, Annotation , AccX [mg], AccY, AccZ, GyroX [mdps], GyroY, GyroZ, MagX [mgauss], MagY, MagZ
18:37:13.395,,-246,-24,1005,770,-1050,-2380,-162,160,-436
18:37:13.414,,-248,-25,1008,210,-1610,-2310,-174,171,-429
18:37:13.433,,-252,-28,1012,-280,-1820,-2100,-169,163,-426
18:37:13.451,,-257,-25,1016,-350,-1750,-1820,-159,156,-426
18:37:13.470,,-261,-24,1021,-70,-1680,-1260,-162,169,-430
18:37:13.489,,-261,-21,1021,280,-1540,-700,-171,163,-426
18:37:13.508,,-258,-21,1021,420,-1050,-350,-184,163,-427
18:37:13.526,,-254,-23,1019,70,-350,-140,-174,166,-426
18:37:13.545,,-251,-26,1017,-630,350,70,-171,171,-427
18:37:13.564,,-252,-29,1015,-1610,700,980,-172,166,-433
18:37:13.583,,-254,-27,1015,-2030,350,2240,-172,169,-435
18:37:13.602,,-252,-16,1020,-1820,-630,3150,-169,169,-430
18:37:13.620,,-247,-6,1023,-1260,-1750,3640,-171,165,-432
18:37:13.639,,-239,7,1029,-700,-2380,3920,-177,169,-427
18:37:13.658,,-230,19,1035,-630,-2240,3850,-175,162,-429
18:37:13.677,,-221,24,1038,-700,-1610,3290,-172,159,-426
18:37:13.696,,-216,27,1037,-770,-560,2170,-162,159,-421
18:37:13.714,,-215,22,1037,-1050,280,840,-174,168,-429
18:37:13.733,,-216,10,1032,-1190,560,-420,-171,162,-441
18:37:13.752,,-217,5,1031,-350,490,-1400,-165,166,-427
18:37:13.771,,-216,1,1027,910,350,-2030,-174,166,-427
18:37:13.790,,-216,-3,1019,1680,560,-2660,-174,168,-433
18:37:13.808,,-220,-7,1011,2240,1260,-3150,-165,168,-433
18:37:13.827,,-227,-14,1003,1820,1960,-3710,-168,163,-429
18:37:13.846,,-227,-14,1003,840,2240,-4060,-172,165,-426
18:37:13.865,,-234,-25,993,840,2240,-4060,-172,171,-429
18:37:13.883,,-247,-31,988,70,2100,-3920,-165,171,-426
18:37:13.902,,-259,-36,988,-700,1120,-3500,-169,168,-433
18:37:13.921,,-267,-37,991,-980,-350,-2800,-169,165,-426
18:37:13.940,,-272,-32,999,-910,-2030,-1960,-174,171,-426
18:37:13.959,,-272,-24,1013,-700,-3290,-1190,-169,157,-429
18:37:13.977,,-271,-22,1023,-770,-3780,-700,-169,157,-429
18:37:13.996,,-264,-20,1036,-770,-3710,-350,-175,171,-432
18:37:14.015,,-259,-22,1041,-980,-3080,-210,-177,168,-429
18:37:14.034,,-254,-22,1043,-1330,-2030,0,-165,165,-430
18:37:14.053,,-250,-27,1047,-1820,-910,490,-169,162,-429
18:37:14.071,,-247,-28,1047,-1960,-70,1330,-171,166,-430
18:37:14.090,,-245,-21,1044,-1750,280,2380,-172,160,-430
18:37:14.109,,-244,-9,1038,-1190,490,3080,-166,169,-423
18:37:14.128,,-242,0,1040,-560,490,3360,-171,166,-426
18:37:14.146,,-238,8,1038,0,420,2870,-174,168,-429
18:37:14.165,,-232,14,1035,630,630,1960,-171,160,-418
18:37:14.184,,-228,16,1029,1050,1120,1050,-172,162,-433
18:37:14.203,,-225,11,1023,1400,1820,70,-163,169,-429
18:37:14.222,,-225,6,1014,1890,2590,-840,-175,165,-427
18:37:14.240,,-224,-2,1006,2030,3010,-1750,-166,171,-429
18:37:14.259,,-226,-14,999,1820,3010,-2730,-171,166,-427
18:37:14.278,,-225,-22,995,1820,2520,-3360,-178,169,-426
18:37:14.297,,-228,-28,993,1680,1750,-3570,-180,169,-430
18:37:14.316,,-235,-28,989,1260,770,-3500,-166,166,-429
18:37:14.334,,-244,-23,987,1050,-490,-3290,-177,168,-426
18:37:14.353,,-255,-17,986,1120,-1680,-2800,-178,162,-427
18:37:14.372,,-256,-17,992,910,-2870,-2660,-172,171,-433
18:37:14.391,,-257,-19,992,700,-3920,-2520,-165,166,-427
18:37:14.410,,-259,-18,998,420,-4480,-2170,-174,166,-432
18:37:14.428,,-260,-18,1008,-350,-4900,-1610,-186,166,-432
18:37:14.447,,-260,-20,1011,-700,-5110,-840,-175,165,-433
18:37:14.466,,-257,-16,1021,-700,-5040,-70,-168,166,-420
18:37:14.485,,-251,-14,1031,-1190,-4830,560,-177,162,-432
18:37:14.503,,-246,-11,1038,-1470,-4340,1050,-174,169,-429
18:37:14.522,,-240,-2,1046,-1260,-3430,1330,-169,165,-424
18:37:14.541,,-237,2,1051,-1120,-2380,1610,-171,163,-432
18:37:14.551,>gest4_cross_right,,,,,,,,,
18:37:14.560,,-233,7,1047,-910,-1190,1470,-171,162,-429
18:37:14.579,,-230,10,1042,-560,70,980,-168,162,-435
18:37:14.597,,-229,6,1038,-280,1050,350,-174,165,-432
18:37:14.616,,-229,3,1029,350,1540,-350,-171,165,-423
18:37:14.635,,-226,0,1021,770,1890,-770,-178,166,-411
18:37:14.654,,-224,-6,1013,420,2100,-1120,-174,159,-427
18:37:14.673,,-224,-12,1009,70,2170,-1540,-163,159,-424
18:37:14.691,,-226,-18,1008,0,1890,-1960,-171,160,-420
18:37:14.710,,-229,-18,1003,0,1470,-2310,-171,163,-424
18:37:14.729,,-231,-16,1001,70,1120,-2240,-165,165,-421
18:37:14.748,,-238,-18,994,-560,770,-2240,-169,154,-420
18:37:14.767,,-246,-22,991,-1190,210,-2170,-169,159,-429
18:37:14.785,,-252,-26,994,-1540,-700,-1960,-171,165,-418
18:37:14.804,,-255,-30,999,-1960,-1890,-1470,-174,163,-421
18:37:14.823,,-256,-26,1009,-2240,-3010,-770,-171,165,-420
18:37:14.842,,-254,-20,1025,-2310,-3850,140,-177,163,-423
18:37:14.860,,-249,-11,1037,-1750,-4270,630,-169,168,-432
18:37:14.879,,-246,0,1047,-980,-3850,770,-168,162,-421
18:37:14.898,,-244,6,1050,-910,-2800,420,-168,157,-411
18:37:14.917,,-242,2,1048,-1540,-1470,-70,-177,162,-426
18:37:14.936,,-244,-2,1048,-1890,-350,-490,-175,171,-432
18:37:14.954,,-244,-11,1044,-1890,-70,-840,-172,166,-427
18:37:14.973,,-242,-18,1045,-1050,-420,-840,-172,166,-427
18:37:14.992,,-238,-15,1040,-70,-630,-560,-175,166,-421
18:37:15.011,,-236,-8,1033,280,-280,-280,-169,163,-423
18:37:15.030,,-236,-6,1025,-210,560,-420,-169,162,-429
18:37:15.048,,-242,-14,1018,-1400,1120,-1120,-174,163,-430
18:37:15.067,,-246,-26,1014,-2310,490,-1610,-171,162,-429
18:37:15.086,,-250,-38,1010,-2660,-1050,-1540,-177,163,-424
18:37:15.105,,-249,-39,1019,-2450,-2940,-700,-160,163,-421
18:37:15.124,,-245,-32,1038,-2030,-4550,560,-168,162,-427
18:37:15.142,,-237,-22,1049,-1680,-5320,1260,-177,165,-426
18:37:15.161,,-227,-9,1062,-1750,-4900,1400,-171,162,-435
18:37:15.180,,-223,-7,1071,-2660,-3710,1190,-171,166,-426
18:37:15.199,,-223,-8,1073,-3500,-2660,770,-165,166,-421
18:37:15.217,,-225,-10,1074,-3150,-2380,490,-169,166,-427
18:37:15.236,,-227,-6,1072,-1820,-2660,560,-162,160,-429
18:37:15.255,,-223,0,1069,-350,-2870,630,-166,162,-420
18:37:15.274,,-219,6,1068,700,-2590,350,-163,165,-412
18:37:15.293,,-221,7,1062,1120,-1680,-350,-165,159,-412
18:37:15.311,,-226,5,1057,1120,-490,-1120,-162,157,-420
18:37:15.330,,-229,-4,1045,1190,700,-1820,-165,156,-409
18:37:15.349,,-232,-11,1034,1540,1750,-2100,-174,151,-412
18:37:15.368,,-236,-16,1023,2170,2380,-1960,-165,159,-429
18:37:15.387,,-237,-16,1005,2870,2800,-1540,-172,157,-430
18:37:15.405,,-239,-17,991,2730,3080,-1050,-171,163,-423
18:37:15.424,,-240,-24,978,1820,2940,-840,-172,165,-421
18:37:15.443,,-239,-27,971,1120,2100,-490,-171,159,-423
18:37:15.462,,-238,-26,968,490,630,-70,-174,159,-414
18:37:15.481,,-234,-19,972,-420,-1050,350,-177,157,-432
18:37:15.499,,-229,-13,977,-1610,-2380,770,-171,160,-424
18:37:15.518,,-223,-7,983,-2870,-3430,630,-166,165,-433
18:37:15.537,,-223,-13,999,-3710,-4270,-70,-177,162,-427
18:37:15.556,,-221,-17,1012,-3430,-5320,-1050,-177,159,-417
18:37:15.574,,-218,-20,1025,-2730,-5740,-1470,-165,162,-421
18:37:15.593,,-212,-24,1037,-2940,-5530,-1330,-169,153,-414
18:37:15.612,,-211,-30,1042,-3570,-4550,-1050,-174,168,-427
18:37:15.631,,-216,-32,1055,-3850,-3500,-630,-174,162,-427
18:37:15.650,,-216,-32,1055,-3850,-3500,-630,-168,160,-418
18:37:15.668,,-219,-33,1062,-3570,-2870,-280,-168,162,-424
18:37:15.687,,-226,-24,1063,-2730,-2100,0,-180,154,-423
18:37:15.706,,-232,-20,1064,-2380,-1330,350,-175,159,-421
18:37:15.725,,-238,-16,1061,-1610,-350,700,-162,154,-420
18:37:15.744,,-239,-13,1055,-490,700,630,-163,154,-415
18:37:15.762,,-239,-17,1044,-280,1540,140,-166,154,-420
18:37:15.781,,-236,-27,1034,-490,2380,-280,-175,156,-430
18:37:15.800,,-236,-40,1026,-840,2590,-210,-169,156,-427
18:37:15.819,,-234,-48,1023,-420,1960,420,-175,151,-421
18:37:15.838,,-229,-43,1022,1190,840,1330,-169,162,-424
18:37:15.856,,-221,-29,1018,2450,490,2170,-168,160,-418
18:37:15.875,,-218,-19,1013,2240,1120,2590,-160,150,-420
18:37:15.894,,-220,-16,1008,1050,2240,2310,-163,160,-423
18:37:15.913,,-224,-18,996,-70,2870,2030,-166,157,-423
18:37:15.932,,-226,-18,991,-700,2660,1890,-166,148,-429
18:37:15.950,,-227,-17,992,-1330,1610,2030,-162,157,-423
18:37:15.969,,-226,-10,996,-1820,-70,2240,-163,153,-421
18:37:15.988,,-226,-1,1009,-1610,-1820,2240,-163,153,-421
18:37:16.007,,-223,7,1024,-1470,-3150,1680,-169,153,-424
18:37:16.025,,-220,10,1042,-1330,-3780,770,-160,166,-435
18:37:16.044,,-217,10,1052,-1120,-3430,-420,-168,157,-432
18:37:16.063,,-219,6,1054,-630,-2380,-1470,-172,163,-421
18:37:16.082,,-219,-1,1052,-350,-840,-2380,-162,156,-426
18:37:16.101,,-220,-13,1048,0,770,-2660,-166,151,-418
18:37:16.119,,-223,-27,1035,420,2310,-2380,-172,160,-426
18:37:16.138,,-225,-32,1022,840,3570,-1890,-175,154,-417
18:37:16.157,,-229,-34,1006,630,4410,-1190,-165,150,-418
18:37:16.176,,-232,-36,993,-140,4620,-490,-165,153,-421
18:37:16.195,,-235,-35,988,-560,3920,210,-165,151,-421
18:37:16.213,,-235,-32,988,-700,2520,980,-153,163,-417
18:37:16.232,,-237,-22,991,-350,1050,1400,-163,162,-415
18:37:16.251,,-237,-13,998,140,-210,1540,-175,162,-432
18:37:16.270,,-236,-5,1005,280,-980,1470,-162,160,-424
18:37:16.288,,-230,-4,1012,280,-1330,1120,-163,166,-426
18:37:16.307,,-221,-5,1016,420,-1050,280,-172,162,-429
18:37:16.326,,-216,-7,1014,490,-350,-490,-174,162,-432
18:37:16.345,,-214,-12,1016,0,420,-980,-160,163,-426
18:37:16.364,,-217,-20,1009,-560,980,-1190,-165,163,-420
18:37:16.382,,-224,-22,1005,-770,1120,-1330,-165,160,-417
18:37:16.401,,-231,-24,1002,-840,560,-1400,-171,156,-420
18:37:16.420,,-238,-22,1002,-770,-420,-1330,-163,159,-418
18:37:16.439,,-241,-18,1007,-630,-1470,-1260,-166,153,-427
18:37:16.458,,-244,-19,1013,-420,-2310,-1190,-162,157,-423
18:37:16.476,,-243,-13,1021,210,-2520,-1190,-168,150,-418
18:37:16.495,,-239,-16,1022,210,-2240,-1470,-168,153,-427
18:37:16.514,,-234,-24,1022,0,-1400,-1680,-168,160,-430
18:37:16.533,,-231,-28,1021,-140,-70,-1750,-177,159,-430
18:37:16.552,,-234,-35,1016,-1050,910,-1470,-168,162,-424
18:37:16.570,,-240,-41,1008,-1820,1260,-910,-169,162,-429
18:37:16.589,,-245,-35,1005,-1540,840,-140,-175,151,-430
18:37:16.608,,-245,-28,1006,-1120,-140,560,-168,160,-433
18:37:16.627,,-241,-21,1009,-770,-1120,980,-159,162,-430
18:37:16.645,,-233,-13,1012,-420,-1610,1120,-163,159,-426
18:37:16.664,,-227,-9,1016,-700,-1680,980,-174,153,-420
18:37:16.683,,-218,-8,1021,-1120,-1610,770,-168,162,-430
18:37:16.702,,-211,-7,1021,-1050,-1610,490,-166,160,-436
18:37:16.721,,-209,0,1023,-770,-1400,70,-168,160,-432
18:37:16.739,,-208,-2,1024,-1260,-1400,-560,-168,156,-430
18:37:16.758,,-213,-2,1025,-1190,-1470,-1330,-171,163,-430
18:37:16.777,,-222,-4,1027,-910,-1680,-2170,-171,156,-420
18:37:16.796,,-231,-8,1032,-770,-1890,-2800,-180,156,-427
18:37:16.815,,-239,-12,1037,-490,-2030,-3080,-169,159,-427
18:37:16.833,,-246,-19,1041,-560,-2100,-3220,-160,157,-427
18:37:16.852,,-249,-26,1042,-420,-1960,-3080,-165,154,-421
18:37:16.871,,-251,-28,1042,-140,-1540,-2730,-168,160,-426
18:37:16.890,,-252,-29,1041,-210,-770,-2240,-162,159,-421
18:37:16.909,,-254,-32,1038,-560,140,-1470,-171,159,-423
18:37:16.927,,-254,-34,1033,-630,910,-770,-165,157,-423
18:37:16.946,,-247,-35,1028,-490,1120,-70,-160,151,-424
18:37:16.965,,-241,-37,1024,-350,1190,700,-166,151,-418
18:37:16.984,,-232,-35,1024,-210,1050,1400,-166,159,-417
18:37:17.002,,-224,-31,1021,-140,840,2030,-166,159,-417
18:37:17.021,,-218,-25,1023,-140,420,2450,-165,150,-423
18:37:17.040,,-219,-15,1023,-70,140,2660,-165,160,-415
18:37:17.059,,-216,-6,1025,0,70,2450,-160,154,-421
18:37:17.078,,-215,1,1024,140,350,1680,-162,156,-427
18:37:17.096,,-217,2,1017,-210,770,700,-174,154,-424
18:37:17.115,,-221,-2,1014,-700,910,-210,-163,157,-424
18:37:17.134,,-224,-7,1015,-770,630,-840,-168,159,-427
18:37:17.153,,-224,-9,1014,-350,140,-1120,-166,153,-424
18:37:17.172,,-232,-5,1015,-70,-70,-1470,-169,154,-420
18:37:17.190,,-239,-9,1014,-280,-70,-1680,-169,159,-432
18:37:17.209,,-245,-13,1013,-350,-140,-1820,-165,162,-414
18:37:17.228,,-246,-20,1018,-490,-420,-1820,-160,151,-417
18:37:17.247,,-240,-26,1024,-560,-770,-1540,-168,157,-426
18:37:17.266,,-234,-26,1028,-490,-910,-840,-169,154,-436
18:37:17.284,,-234,-23,1031,-420,-630,-140,-168,168,-426
18:37:17.303,,-233,-15,1032,-350,-140,280,-174,154,-432
18:37:17.322,,-233,-11,1029,-140,490,350,-166,160,-421
18:37:17.341,,-233,-13,1026,-350,1120,210,-163,157,-426
18:37:17.359,,-231,-18,1024,-770,1540,140,-162,156,-424
18:37:17.378,,-230,-20,1015,-910,1540,140,-165,162,-426
18:37:17.397,,-229,-17,1015,-840,1190,210,-169,150,-423
18:37:17.416,,-229,-13,1015,-560,560,420,-160,160,-418
18:37:17.435,,-229,-13,1015,-560,560,420,-165,153,-426
18:37:17.453,,-230,-4,1015,-70,-70,350,-169,153,-421
18:37:17.472,,-231,-1,1017,140,-420,-210,-162,153,-420
18:37:17.491,,-230,-3,1019,-140,-350,-980,-163,157,-427
18:37:17.510,,-229,-11,1018,-490,-140,-1890,-166,157,-423
18:37:17.529,,-229,-20,1018,-700,70,-2240,-168,165,-430
18:37:17.547,,-229,-28,1015,-910,140,-2170,-168,163,-432
18:37:17.566,,-232,-30,1008,-490,-70,-1960,-162,162,-429
18:37:17.585,,-234,-27,1008,140,-210,-1750,-172,162,-429
18:37:17.604,,-233,-28,1002,-280,-280,-1750,-171,165,-427
18:37:17.623,,-235,-29,995,-980,-70,-2030,-169,159,-432
18:37:17.641,,-242,-28,995,-1610,0,-2100,-165,153,-423
18:37:17.660,,-246,-34,992,-2030,-700,-1890,-172,165,-427
18:37:17.679,,-246,-32,996,-1190,-1750,-1330,-168,154,-427
18:37:17.698,,-244,-25,1001,-770,-2520,-770,-159,154,-424
18:37:17.717,,-244,-23,1005,-1190,-2800,-350,-174,162,-421
18:37:17.735,,-243,-25,1015,-2030,-2660,-280,-169,165,-421
18:37:17.754,,-240,-30,1024,-2520,-2590,-70,-165,157,-424
18:37:17.773,,-234,-27,1036,-2100,-2660,350,-171,156,-435
18:37:17.785,<gest4_cross_right,,,,,,,,,
18:37:17.792,,-227,-15,1041,-1330,-2310,980,-166,163,-418
18:37:17.810,,-219,-1,1037,-630,-1470,1190,-168,156,-420
18:37:17.829,,-214,8,1031,-210,-140,700,-169,153,-427
18:37:17.848,,-217,6,1021,-280,1190,-420,-166,160,-435
18:37:17.867,,-220,-3,1011,-490,1890,-1820,-171,159,-426
18:37:17.886,,-223,-17,998,-560,1820,-2870,-171,162,-423
18:37:17.904,,-225,-31,991,-420,1050,-3150,-160,156,-427
18:37:17.923,,-225,-41,990,-210,-140,-2870,-169,153,-424
18:37:17.942,,-226,-41,992,210,-1260,-2310,-166,156,-420
18:37:17.961,,-228,-36,996,210,-1890,-1960,-159,159,-420
18:37:17.980,,-232,-36,993,-770,-1960,-1820,-169,160,-423
18:37:17.998,,-236,-37,994,-1750,-1890,-1750,-169,160,-423
18:37:18.017,,-241,-38,994,-2380,-2170,-1400,-168,160,-424
18:37:18.036,,-244,-38,992,-2940,-2940,-980,-163,160,-426
18:37:18.055,,-241,-42,991,-3150,-4130,-420,-163,159,-432
18:37:18.073,,-236,-46,985,-3220,-5390,210,-168,154,-424
18:37:18.092,,-227,-53,976,-3500,-6510,1260,-171,160,-427
18:37:18.111,,-214,-62,951,-4060,-7700,2450,-172,156,-427
18:37:18.130,,-199,-83,912,-5810,-9240,3640,-160,153,-424
18:37:18.149,,-183,-117,864,-8960,-12250,5320,-159,151,-421
18:37:18.167,,-163,-149,805,-11550,-17430,7910,-163,147,-412
18:37:18.186,,-151,-143,768,-10570,-23870,11060,-153,150,-421
18:37:18.205,,-146,-88,760,-6720,-29890,14070,-150,138,-420
18:37:18.224,,-146,-34,752,-7140,-33460,14910,-153,129,-417
18:37:18.243,,-155,-4,767,-12110,-37520,13370,-157,142,-414
18:37:18.261,,-137,7,823,-20090,-43260,9800,-153,132,-420
18:37:18.280,,-151,0,933,-25060,-48370,5460,-153,124,-420
18:37:18.299,,-108,-25,999,-25970,-56070,2730,-150,108,-412
18:37:18.318,,-133,3,961,-25900,-58450,-70,-135,102,-417
18:37:18.337,,-100,-31,971,-27160,-59430,-3640,-127,97,-406
18:37:18.355,,-68,-32,1024,-29960,-60340,-5110,-138,85,-393
18:37:18.374,,-26,-65,1075,-33040,-59920,-5810,-132,84,-396
18:37:18.393,,17,-190,1159,-37800,-54530,-4480,-124,82,-402
18:37:18.412,,43,-143,1362,-27580,-30520,-5320,-120,73,-402
18:37:18.431,,53,-69,1586,-14560,3500,-12880,-133,76,-403
18:37:18.449,,-1,-116,1532,-19530,26390,-16170,-129,84,-408
18:37:18.468,,-75,-123,1342,-16660,31640,-17080,-123,93,-408
18:37:18.487,,-76,-151,1171,-13860,25550,-12530,-129,85,-409
18:37:18.506,,-52,-119,1118,-8680,20160,-9310,-121,91,-415
18:37:18.524,,-26,-110,1104,-6580,14630,-6580,-121,100,-408
18:37:18.543,,-22,-127,1072,-9380,10010,-4900,-118,97,-417
18:37:18.562,,-26,-158,1051,-11480,7560,-3710,-123,94,-415
18:37:18.581,,-32,-194,1060,-10920,6860,-2030,-121,96,-417
18:37:18.600,,-57,-190,1081,-6580,8260,-1330,-121,99,-412
18:37:18.618,,-71,-166,1116,-1610,7560,-1050,-120,93,-418
18:37:18.637,,-81,-149,1136,-1330,4340,-980,-124,94,-415
18:37:18.656,,-82,-137,1116,-4830,2100,-2030,-118,100,-414
18:37:18.675,,-79,-148,1077,-7770,840,-2870,-118,99,-415
18:37:18.694,,-71,-166,1031,-9100,-350,-3010,-109,96,-415
18:37:18.712,,-62,-181,1017,-7490,-1190,-2240,-111,99,-408
18:37:18.731,,-59,-191,1027,-4970,-1050,-1120,-120,105,-418
18:37:18.750,,-63,-191,1039,-3290,-420,-560,-121,97,-421
18:37:18.769,,-67,-184,1040,-2450,70,-630,-112,91,-417
18:37:18.788,,-67,-177,1036,-2310,560,-1400,-114,100,-405
18:37:18.806,,-66,-172,1024,-2800,980,-2100,-111,105,-420
18:37:18.825,,-67,-174,1014,-3220,1330,-2590,-118,99,-414
18:37:18.844,,-64,-175,1012,-3010,1540,-2660,-118,102,-423
18:37:18.863,,-64,-183,1016,-3010,1750,-2450,-117,97,-423
18:37:18.882,,-64,-176,1027,-2380,2660,-2310,-117,105,-423
18:37:18.900,,-66,-162,1026,-1960,3780,-2450,-117,102,-417
18:37:18.919,,-69,-164,1021,-2100,4550,-2730,-118,97,-411
18:37:18.938,,-67,-162,1028,-1820,5320,-2380,-111,108,-426
18:37:18.957,,-63,-164,1034,-2310,6020,-1260,-118,102,-423
18:37:18.976,,-54,-165,1029,-2730,7560,420,-115,111,-418
18:37:18.994,,-65,-157,1025,-3080,9940,2240,-115,111,-418
18:37:19.013,,-77,-157,1019,-5320,12460,3640,-112,105,-417
18:37:19.032,,-99,-181,1026,-7630,14770,4760,-114,111,-426
18:37:19.051,,-119,-188,1047,-8400,15960,4900,-108,111,-430
18:37:19.069,,-128,-209,1064,-9170,15400,3570,-111,106,-424
18:37:19.088,,-128,-206,1068,-9030,13580,1680,-102,114,-426
18:37:19.107,,-126,-202,1052,-8190,10780,630,-108,112,-430
18:37:19.126,,-144,-170,1015,-6300,6650,560,-105,114,-430
18:37:19.145,,-81,-155,1021,-3500,-700,2030,-102,112,-436
18:37:19.163,,-86,-202,981,-5390,-2240,2730,-106,118,-432
18:37:19.182,,-115,-225,989,-8050,490,2100,-97,117,-429
18:37:19.201,,-114,-229,1016,-6720,1120,1400,-108,117,-426
18:37:19.220,,-119,-229,1013,-4340,140,2240,-90,114,-424
18:37:19.239,,-119,-222,1013,-4340,140,2240,-97,124,-439
18:37:19.257,,-119,-197,1007,-2240,-280,2870,-94,117,-444
18:37:19.276,,-114,-193,1003,-2870,70,2450,-103,118,-441
18:37:19.295,,-116,-200,1010,-2870,210,1820,-97,123,-435
18:37:19.314,,-121,-212,1015,-2800,-70,2030,-94,118,-435
18:37:19.332,,-123,-236,1017,-2660,-350,2100,-106,112,-438
18:37:19.351,,-120,-222,1025,-140,-350,1400,-97,117,-430
18:37:19.370,,-119,-212,1025,1190,-280,840,-97,117,-444
18:37:19.389,,-125,-204,1035,1120,-280,350,-99,117,-436
18:37:19.408,,-122,-209,1051,630,70,0,-102,111,-424
18:37:19.426,,-119,-207,1037,70,770,-560,-96,124,-429
18:37:19.445,,-115,-193,1007,-280,1050,-1680,-96,115,-433
18:37:19.464,,-115,-211,1003,-1680,420,-2240,-94,117,-435
18:37:19.483,,-116,-217,1028,-910,-560,-2240,-100,120,-438
18:37:19.502,,-111,-196,1052,1540,-840,-2310,-97,120,-441
18:37:19.520,,-114,-186,1050,630,0,-2450,-105,121,-438
18:37:19.539,,-114,-200,1034,-1820,420,-2450,-96,115,-439
18:37:19.558,,-115,-199,1022,-2030,350,-1890,-99,118,-438
18:37:19.577,,-115,-204,1030,-1750,-70,-770,-105,115,-439
18:37:19.596,,-118,-195,1040,-1050,-210,420,-97,123,-435
18:37:19.614,,-118,-193,1042,-840,-210,1190,-100,112,-436
18:37:19.633,,-116,-193,1037,-1330,70,1540,-106,115,-438
18:37:19.652,,-120,-192,1017,-1820,560,1890,-93,120,-439
18:37:19.671,,-124,-209,1003,-2870,490,2520,-96,118,-438
18:37:19.689,,-121,-215,1006,-1960,-280,3150,-96,117,-438
18:37:19.708,,-115,-210,1031,0,-1120,3430,-88,106,-436
18:37:19.727,,-111,-208,1045,490,-980,3850,-100,114,-427
18:37:19.746,,-115,-208,1037,-140,-350,4270,-88,102,-427
18:37:19.765,,-120,-209,1021,70,-70,4480,-94,112,-427
18:37:19.783,,-122,-201,1011,420,0,4060,-96,114,-427
18:37:19.802,,-119,-208,1006,1610,-210,3010,-99,126,-438
18:37:19.821,,-112,-207,1019,2310,-770,1960,-103,109,-435
18:37:19.840,,-116,-205,1023,1890,-560,560,-102,112,-429
18:37:19.859,,-125,-205,1012,1540,-210,-700,-103,120,-438
18:37:19.877,,-128,-214,1011,350,-490,-1120,-99,121,-438
18:37:19.896,,-131,-210,1022,1400,-1050,-1050,-99,115,-436
18:37:19.915,,-133,-189,1033,2450,-1050,-1050,-100,111,-432
18:37:19.934,,-127,-201,1036,490,-630,-980,-99,118,-436
18:37:19.953,,-119,-200,1032,-70,-420,-840,-96,112,-438
18:37:19.971,,-116,-187,1013,-2800,140,-840,-93,118,-432
18:37:19.990,,-121,-211,994,-7000,980,-1400,-93,118,-432
18:37:20.009,,-119,-220,1005,-3570,490,-1400,-99,118,-444
18:37:20.028,,-120,-202,1007,0,-210,-490,-103,112,-439
18:37:20.046,,-122,-194,999,-420,-210,-280,-94,117,-433
18:37:20.065,,-117,-192,1014,-350,-700,-280,-99,115,-433
18:37:20.084,,-113,-196,1029,70,-1120,420,-94,123,-430
18:37:20.103,,-113,-195,1033,140,-980,770,-99,114,-432
18:37:20.122,,-117,-194,1029,140,-490,630,-94,112,-427
18:37:20.140,,-119,-189,1016,-490,-280,630,-99,114,-439
18:37:20.159,,-124,-205,999,-1890,-840,420,-93,117,-430
18:37:20.178,,-123,-216,999,-1610,-1610,-70,-88,114,-441
18:37:20.197,,-121,-215,1015,-770,-2100,-560,-96,120,-438
18:37:20.216,,-123,-210,1041,-1260,-2100,-630,-94,118,-436
18:37:20.234,,-114,-202,1064,-2730,-560,-770,-88,124,-438
18:37:20.253,,-123,-193,1023,-630,560,-700,-94,118,-444
18:37:20.272,,-123,-195,976,-1400,0,-560,-99,118,-433
18:37:20.291,,-119,-215,983,-1960,-1190,-770,-94,118,-435
18:37:20.309,,-119,-222,993,-1750,-2380,-840,-99,117,-435
18:37:20.328,,-116,-199,1006,-350,-3360,-1400,-96,105,-429
18:37:20.347,,-114,-200,1037,-210,-3640,-1680,-93,111,-427
18:37:20.366,,-114,-220,1057,-1400,-3080,-1120,-91,114,-433
18:37:20.385,,-117,-209,1046,-840,-1400,-770,-94,108,-426
18:37:20.403,,-119,-201,1026,-1050,-280,-490,-94,105,-430
18:37:20.422,,-114,-211,1028,-980,-280,140,-105,121,-435
18:37:20.441,,-116,-204,1024,-630,-490,490,-93,112,-435
18:37:20.460,,-114,-196,1021,-840,-560,70,-96,114,-427
18:37:20.479,,-120,-223,1022,-2310,-490,140,-88,120,-438
18:37:20.497,,-123,-225,1009,-1610,-420,210,-100,117,-439
18:37:20.516,,-117,-208,1004,-280,-560,-560,-97,117,-432
18:37:20.535,,-106,-205,1029,350,-1120,-840,-102,115,-427
18:37:20.554,,-106,-191,1042,980,-1050,-700,-105,120,-433
18:37:20.573,,-110,-194,1018,-350,-420,-840,-97,117,-435
18:37:20.591,,-114,-204,1001,-840,-210,-1190,-94,111,-430
18:37:20.610,,-113,-208,1017,140,-770,-1120,-97,109,-438
18:37:20.629,,-117,-206,1029,840,-1050,-980,-100,115,-427
18:37:20.648,,-119,-205,1026,350,-770,-980,-91,103,-427
18:37:20.666,,-112,-206,1030,70,-910,-770,-97,111,-433
18:37:20.685,,-116,-201,1026,350,-630,-560,-91,114,-429
18:37:20.704,,-117,-203,1023,-140,-210,-700,-94,112,-429
18:37:20.723,,-115,-211,1022,-770,-140,-630,-97,108,-417
18:37:20.742,,-116,-218,1014,-1050,70,-420,-94,112,-427
18:37:20.760,,-116,-209,1002,-1050,140,-560,-93,120,-436
18:37:20.779,,-110,-207,1010,-700,-280,-560,-91,117,-430
18:37:20.798,,-105,-201,1032,-210,-700,-210,-94,112,-435
18:37:20.817,,-108,-202,1033,-840,-490,0,-100,111,-433
18:37:20.836,,-111,-200,1018,-1330,-70,-140,-100,115,-432
18:37:20.854,,-115,-213,1004,-1820,140,-210,-85,118,-429
18:37:20.873,,-116,-215,1006,-1120,-140,-210,-91,108,-421
18:37:20.892,,-113,-204,1011,-140,-350,-350,-94,114,-426
18:37:20.911,,-114,-199,1013,-420,-420,-700,-91,108,-432
18:37:20.930,,-115,-207,1023,-700,-770,-770,-91,106,-433
18:37:20.948,,-116,-211,1035,-630,-1120,-210,-93,114,-436
18:37:20.967,,-117,-206,1033,-280,-770,-70,-94,117,-432
18:37:20.986,,-117,-198,1024,-490,0,-420,-102,114,-433
18:37:21.005,,-120,-218,1015,-1820,140,-420,-102,114,-433
18:37:21.023,,-120,-218,1015,-1820,140,-420,-99,118,-438
18:37:21.042,,-121,-227,1018,-1260,-210,-280,-94,121,-435
18:37:21.061,,-120,-204,1022,-70,-350,-490,-102,117,-436
18:37:21.080,,-116,-206,1024,-840,-350,-490,-90,118,-427
18:37:21.099,,-115,-209,1028,-1120,-560,-70,-88,111,-427
18:37:21.117,,-115,-209,1031,-980,-560,280,-90,111,-432
18:37:21.136,,-115,-207,1030,-1120,-560,280,-84,108,-421
18:37:21.155,,-112,-213,1030,-1120,-350,280,-85,111,-433
18:37:21.174,,-113,-211,1024,-840,-210,210,-90,111,-435
18:37:21.193,,-113,-217,1022,-840,-350,-70,-91,115,-433
18:37:21.211,,-115,-218,1036,-280,-770,-140,-91,109,-432
18:37:21.230,,-115,-215,1042,140,-700,-210,-90,105,-432
18:37:21.249,,-119,-217,1027,-630,-70,-350,-81,118,-433
18:37:21.268,,-118,-219,1016,-770,0,-420,-87,114,-435
18:37:21.287,,-116,-205,1025,700,-770,-630,-93,111,-442
18:37:21.305,,-108,-197,1053,1400,-1330,-840,-99,120,-433
18:37:21.324,,-111,-197,1054,630,-910,-910,-93,106,-439
18:37:21.343,,-116,-198,1034,-350,-140,-980,-94,115,-438
18:37:21.362,,-117,-211,1025,-700,-140,-770,-99,115,-426
18:37:21.380,,-116,-213,1030,-420,-420,-630,-90,118,-442
18:37:21.399,,-113,-209,1040,-140,-630,-630,-102,118,-427
18:37:21.418,,-110,-201,1039,-210,-420,-630,-91,111,-432
18:37:21.437,,-111,-200,1024,-840,140,-770,-99,121,-429
18:37:21.456,,-114,-211,1011,-1540,350,-700,-93,114,-445
18:37:21.474,,-118,-216,1006,-1540,140,-560,-99,123,-442
18:37:21.493,,-119,-207,1011,-910,-70,-490,-93,121,-430
18:37:21.512,,-114,-201,1018,-840,-350,-490,-94,118,-438
18:37:21.531,,-114,-208,1032,-1050,-700,-70,-96,117,-439
18:37:21.550,,-119,-212,1039,-1190,-560,420,-96,112,-442
18:37:21.568,,-119,-221,1033,-1820,-420,630,-88,118,-438
18:37:21.587,,-118,-223,1029,-1190,-280,630,-96,111,-436
18:37:21.606,,-116,-214,1033,-350,-140,420,-97,114,-436
18:37:21.625,,-115,-218,1023,-700,-70,-140,-93,114,-433
18:37:21.644,,-114,-217,1019,-560,-70,-700,-94,120,-429
18:37:21.662,,-118,-215,1012,-350,70,-1120,-94,120,-441
18:37:21.681,,-119,-214,1001,-630,140,-1260,-90,109,-432
18:37:21.700,,-119,-214,997,-630,-210,-1260,-94,106,-438
18:37:21.719,,-114,-210,1020,0,-980,-980,-90,109,-427
18:37:21.737,,-114,-201,1031,350,-1190,-700,-91,111,-430
18:37:21.756,,-115,-204,1030,-630,-840,-490,-94,115,-438
18:37:21.775,,-117,-218,1021,-1260,-350,-350,-99,111,-444
18:37:21.794,,-123,-223,1003,-1680,70,-280,-99,111,-436
18:37:21.813,,-124,-224,1005,-1610,-140,-420,-99,114,-436
18:37:21.831,,-120,-222,1021,-1120,-840,-420,-99,108,-438
18:37:21.850,,-115,-197,1033,0,-980,-560,-94,115,-429
18:37:21.869,,-113,-194,1036,-490,-630,-980,-91,106,-432
18:37:21.888,,-118,-215,1020,-2100,-140,-980,-94,114,-426
18:37:21.907,,-122,-224,1004,-2030,-140,-980,-81,117,-429
18:37:21.925,,-121,-223,1009,-1120,-490,-980,-93,108,-435
18:37:21.944,,-116,-217,1026,-210,-1050,-770,-93,115,-439
18:37:21.963,,-113,-205,1033,420,-910,-560,-87,118,-433
18:37:21.982,,-112,-201,1023,70,-630,-420,-96,111,-433
18:37:22.000,,-112,-211,1020,-350,-490,-70,-96,111,-433
18:37:22.019,,-115,-220,1019,-280,-350,490,-93,109,-427
18:37:22.038,,-115,-212,1009,140,-420,700,-94,117,-439
18:37:22.057,,-112,-207,1015,560,-770,420,-91,115,-429
18:37:22.076,,-108,-211,1038,910,-1260,350,-93,111,-430
18:37:22.094,,-111,-209,1038,910,-980,0,-96,112,-435
18:37:22.113,,-114,-214,1018,-210,-280,-560,-91,114,-432
18:37:22.132,,-118,-215,1005,-280,-210,-980,-88,108,-439
18:37:22.151,,-114,-202,1020,840,-840,-1330,-99,105,-432
18:37:22.170,,-110,-198,1040,910,-1190,-1610,-90,115,-433
18:37:22.188,,-116,-203,1034,-210,-840,-1680,-97,109,-438
18:37:22.207,,-121,-214,1019,-980,-490,-1820,-93,114,-429
18:37:22.226,,-119,-224,1017,-700,-560,-1890,-99,114,-435
18:37:22.245,,-113,-211,1029,630,-770,-1820,-103,112,-430
18:37:22.264,,-106,-197,1042,1120,-980,-1680,-91,120,-438
18:37:22.282,,-104,-196,1046,350,-560,-1540,-87,106,-433
18:37:22.301,,-109,-208,1037,-1050,0,-1190,-94,120,-430
18:37:22.320,,-115,-220,1019,-1540,-140,-700,-99,112,-439
18:37:22.339,,-113,-209,1025,-280,-350,-700,-94,109,-438
18:37:22.357,,-107,-197,1032,280,-280,-1120,-91,105,-424
18:37:22.376,,-107,-205,1024,-770,-420,-1120,-91,115,-438
18:37:22.395,,-106,-205,1024,-630,-560,-910,-94,108,-435
18:37:22.414,,-105,-200,1034,-280,-840,-770,-91,108,-435
18:37:22.433,,-109,-200,1040,-490,-840,-420,-94,112,-427
18:37:22.451,,-115,-205,1036,-980,-350,0,-93,109,-436
18:37:22.470,,-116,-215,1027,-1680,-140,210,-88,114,-435
18:37:22.489,,-115,-220,1032,-1470,-280,350,-96,111,-438
18:37:22.508,,-116,-212,1036,-1190,-70,350,-94,115,-430
18:37:22.527,,-119,-203,1020,-1470,490,0,-91,112,-430
18:37:22.545,,-119,-212,1002,-2310,840,-420,-91,111,-432
18:37:22.564,,-123,-224,997,-2940,700,-210,-94,118,-427
18:37:22.583,,-122,-223,1001,-1890,-140,0,-88,111,-429
18:37:22.602,,-110,-199,1031,70,-1120,70,-85,115,-432
18:37:22.621,,-106,-192,1040,210,-700,0,-94,111,-436
18:37:22.639,,-110,-206,1010,-1400,280,0,-93,111,-429
18:37:22.658,,-118,-226,988,-1820,560,0,-99,118,-432
18:37:22.677,,-120,-240,992,-1330,0,70,-81,118,-430
18:37:22.696,,-116,-235,1005,-350,-700,70,-96,103,-433
18:37:22.714,,-109,-216,1023,910,-1190,-140,-96,111,-439
18:37:22.733,,-111,-204,1039,770,-980,-210,-90,114,-435
18:37:22.752,,-121,-218,1027,-980,-280,70,-90,112,-430
18:37:22.771,,-125,-232,1010,-1820,-70,210,-96,109,-433
18:37:22.790,,-121,-225,1009,-490,-280,0,-88,115,-445
18:37:22.808,,-121,-225,1009,420,-770,-350,-90,117,-432
18:37:22.827,,-113,-213,1029,420,-770,-350,-94,108,-438
18:37:22.846,,-118,-219,1048,0,-840,-350,-90,112,-430
18:37:22.865,,-125,-230,1042,-910,-490,-210,-90,112,-435
18:37:22.884,,-126,-228,1016,-910,-210,-420,-91,105,-433
18:37:22.902,,-112,-215,1022,560,-630,-840,-94,112,-426
18:37:22.921,,-105,-203,1036,1610,-700,-980,-93,108,-429
18:37:22.940,,-109,-196,1023,770,-280,-1330,-93,117,-430
18:37:22.959,,-115,-212,1011,-490,-140,-1610,-91,115,-432
18:37:22.978,,-118,-229,1012,-630,-630,-1190,-96,108,-438
18:37:22.996,,-115,-213,1028,1120,-1260,-980,-96,109,-435
18:37:23.015,,-110,-201,1056,1540,-1540,-910,-93,112,-436
18:37:23.034,,-112,-209,1067,770,-1190,-350,-93,112,-436
18:37:23.053,,-122,-212,1028,-560,70,-210,-97,109,-430
18:37:23.071,,-120,-228,1006,-1470,-70,-420,-93,120,-432
18:37:23.090,,-110,-217,1042,980,-1260,-420,-94,112,-439
18:37:23.109,,-109,-183,1073,2240,-1400,-560,-94,111,-433
18:37:23.128,,-118,-193,1059,-560,-350,-840,-93,111,-432
18:37:23.147,,-128,-231,1024,-3150,630,-420,-96,111,-427
18:37:23.165,,-133,-243,1001,-2800,560,210,-87,108,-435
18:37:23.184,,-123,-232,1009,-1190,-420,420,-90,109,-432
18:37:23.203,,-116,-213,1027,-140,-770,210,-79,117,-430
18:37:23.222,,-109,-206,1040,-280,-910,0,-99,111,-441
18:37:23.241,,-107,-220,1044,-980,-910,210,-93,112,-438
18:37:23.259,,-110,-224,1048,-630,-700,490,-97,114,-435
18:37:23.278,,-108,-207,1039,560,-210,350,-96,112,-438
18:37:23.297,,-114,-210,1009,-280,490,-350,-91,118,-441
18:37:23.316,,-123,-232,994,-1190,700,-840,-93,114,-438
18:37:23.335,,-128,-231,995,-350,-140,-980,-93,118,-439
18:37:23.353,,-127,-215,1007,560,-980,-1050,-94,109,-436
18:37:23.372,,-118,-203,1039,1050,-1820,-980,-94,118,-436
18:37:23.391,,-106,-196,1064,1470,-2030,-420,-94,112,-438
18:37:23.410,,-110,-191,1045,700,-770,-140,-99,120,-442
18:37:23.428,,-114,-211,1012,-910,140,-210,-96,123,-438
18:37:23.447,,-116,-225,1003,-560,-140,-280,-96,117,-433
18:37:23.466,,-115,-215,1011,560,-420,-910,-102,112,-427
18:37:23.485,,-113,-201,1023,980,-700,-1610,-97,115,-432
18:37:23.504,,-113,-199,1040,840,-910,-1470,-93,112,-441
18:37:23.522,,-113,-198,1042,490,-840,-1050,-93,112,-436
18:37:23.541,,-105,-196,1037,210,-630,-700,-96,115,-430
18:37:23.560,,-107,-201,1020,-210,-280,-420,-96,120,-432
18:37:23.579,,-107,-203,1025,140,-700,-420,-100,118,-429
18:37:23.598,,-105,-193,1044,910,-1190,-630,-94,106,-427
18:37:23.616,,-109,-196,1051,280,-910,-980,-97,115,-435
18:37:23.635,,-115,-210,1039,-910,-350,-980,-102,111,-447
18:37:23.654,,-117,-220,1026,-1260,0,-700,-100,120,-433
18:37:23.673,,-117,-216,1021,-1260,140,-490,-100,117,-432
18:37:23.691,,-115,-204,1018,-910,210,-490,-99,115,-433
18:37:23.710,,-116,-201,999,-1820,420,-700,-91,111,-436
18:37:23.729,,-109,-214,1017,-2100,-490,-490,-93,112,-436
18:37:23.748,,-105,-197,1046,-280,-1190,-70,-97,103,-435
18:37:23.767,,-105,-188,1049,-840,-420,0,-100,114,-441
18:37:23.785,,-111,-208,1026,-2100,490,70,-91,117,-430
18:37:23.804,,-116,-219,1004,-1960,700,70,-87,108,-424
18:37:23.823,,-113,-220,1009,-1050,70,-140,-96,112,-426
18:37:23.842,,-109,-209,1026,-70,-560,-490,-96,112,-436
18:37:23.861,,-108,-200,1032,-140,-420,-700,-93,106,-432
18:37:23.879,,-115,-196,1010,-910,350,-980,-88,114,-436
18:37:23.898,,-117,-212,997,-1820,280,-980,-93,114,-435
18:37:23.917,,-117,-217,1015,-1330,-630,-420,-94,117,-430
18:37:23.936,,-112,-205,1050,-140,-1330,210,-93,105,-433
18:37:23.955,,-116,-200,1047,-1050,-490,280,-93,108,-429
18:37:23.973,,-122,-222,1017,-3080,700,210,-90,111,-424
18:37:23.992,,-129,-237,997,-3150,910,490,-93,108,-429
18:37:24.011,,-130,-233,1007,-2100,210,490,-87,112,-432
18:37:24.030,,-119,-220,1035,-1120,-630,140,-97,111,-436
18:37:24.048,,-114,-214,1048,-910,-630,70,-97,111,-436
18:37:24.067,,-116,-215,1034,-1540,-70,0,-91,108,-433
18:37:24.086,,-114,-224,1031,-1680,0,70,-91,117,-438
18:37:24.105,,-116,-222,1020,-1050,70,0,-93,115,-439
18:37:24.124,,-112,-223,1009,-840,350,-700,-93,117,-438
18:37:24.142,,-114,-222,989,-840,630,-1400,-94,111,-424
18:37:24.161,,-119,-219,980,-630,420,-1680,-93,109,-424
18:37:24.180,,-119,-213,997,140,-490,-1750,-94,111,-436
18:37:24.199,,-113,-200,1027,1050,-1470,-1400,-88,108,-433
18:37:24.218,,-113,-200,1037,490,-1330,-770,-91,106,-436
18:37:24.236,,-120,-211,1019,-910,-350,-280,-93,109,-433
18:37:24.255,,-122,-227,1000,-1610,-70,140,-94,115,-441
18:37:24.274,,-123,-231,1009,-840,-560,280,-96,121,-436
18:37:24.293,,-118,-222,1037,70,-1120,280,-96,115,-445
18:37:24.311,,-122,-216,1033,-490,-560,0,-93,120,-432
18:37:24.330,,-123,-223,1009,-1750,280,-420,-90,108,-429
18:37:24.349,,-121,-228,990,-1540,350,-630,-96,106,-439
18:37:24.368,,-119,-214,990,-630,-140,-840,-93,108,-429
18:37:24.387,,-110,-206,1015,280,-980,-1190,-87,115,-432
18:37:24.405,,-111,-201,1034,490,-1260,-1120,-94,114,-436
18:37:24.424,,-114,-210,1031,-420,-1050,-910,-91,109,-439
18:37:24.443,,-115,-223,1031,-490,-980,-560,-90,111,-433
18:37:24.462,,-116,-225,1040,350,-980,-210,-97,118,-439
18:37:24.481,,-117,-218,1036,770,-490,-350,-96,117,-442
18:37:24.499,,-114,-220,1021,70,-210,-840,-99,105,-432
18:37:24.518,,-111,-220,1015,210,-420,-1190,-88,117,-424
18:37:24.537,,-109,-205,1025,840,-700,-1540,-88,114,-426
18:37:24.556,,-110,-196,1020,560,-420,-2030,-88,115,-426
18:37:24.575,,-114,-205,1005,-700,-70,-2170,-97,112,-441
18:37:24.593,,-114,-212,1012,-630,-770,-1820,-94,115,-442
18:37:24.612,,-114,-212,1012,-630,-770,-1820,-93,111,-433
18:37:24.631,,-111,-201,1037,700,-1610,-1190,-91,117,-438
18:37:24.650,,-106,-187,1057,910,-1750,-770,-100,117,-435
18:37:24.669,,-105,-198,1064,-210,-1190,-280,-97,114,-436
18:37:24.687,,-119,-215,1036,-1330,70,210,-96,118,-435
18:37:24.706,,-124,-226,1010,-1890,560,70,-97,114,-438
18:37:24.725,,-121,-231,1009,-1540,-70,-350,-91,111,-435
18:37:24.744,,-116,-215,1027,-210,-630,-700,-90,112,-430
18:37:24.762,,-106,-191,1044,70,-630,-1120,-91,109,-436
18:37:24.781,,-110,-202,1026,-1540,-70,-1190,-99,111,-430
18:37:24.800,,-110,-212,1016,-1890,-70,-910,-97,108,-441
18:37:24.819,,-110,-204,1014,-980,-210,-700,-100,118,-438
18:37:24.838,,-108,-208,1020,-980,-420,-700,-94,114,-435
18:37:24.856,,-107,-210,1037,-700,-840,-490,-91,105,-432
18:37:24.875,,-105,-205,1050,70,-1050,-280,-82,112,-426
18:37:24.894,,-106,-201,1042,-420,-420,-420,-91,112,-426
18:37:24.913,,-117,-212,1011,-1540,840,-700,-93,105,-430
18:37:24.932,,-123,-219,976,-2170,1330,-1120,-87,109,-436
18:37:24.950,,-120,-227,974,-2240,560,-1330,-93,112,-439
18:37:24.969,,-110,-214,1010,-700,-840,-1190,-91,117,-441
18:37:24.988,,-105,-189,1043,210,-1470,-700,-88,109,-430
18:37:25.007,,-114,-194,1042,-1400,-630,0,-91,111,-427
18:37:25.026,,-122,-220,1014,-3080,210,840,-93,117,-438
18:37:25.044,,-121,-225,998,-2450,280,1190,-87,114,-432
18:37:25.063,,-111,-219,1011,-770,-210,770,-87,114,-432
18:37:25.082,,-116,-208,1007,-420,70,-70,-91,108,-441
18:37:25.101,,-119,-222,996,-1750,280,-770,-90,106,-435
18:37:25.119,,-121,-232,995,-1470,-140,-700,-91,112,-439
18:37:25.138,,-116,-214,1006,-70,-770,-350,-97,118,-433
18:37:25.157,,-102,-194,1018,840,-910,-490,-96,118,-436
18:37:25.176,,-98,-184,1013,560,-140,-910,-91,117,-436
18:37:25.195,,-106,-213,1004,-1190,-140,-770,-87,109,-429
18:37:25.213,,-114,-224,996,-840,-560,-420,-94,108,-429
18:37:25.232,,-117,-206,998,280,-560,-840,-87,105,-435
18:37:25.251,,-115,-212,1012,0,-420,-1190,-90,109,-435
18:37:25.270,,-119,-219,1017,-210,-350,-630,-91,114,-435
18:37:25.289,,-119,-209,1014,-70,-280,-210,-90,112,-438
18:37:25.307,,-113,-203,1006,-350,-210,-70,-94,118,-436
18:37:25.326,,-108,-206,1010,-560,-280,-70,-94,118,-435
18:37:25.345,,-109,-211,1020,-490,-490,140,-97,118,-438
18:37:25.364,,-109,-202,1022,-70,-560,0,-88,114,-439
18:37:25.383,,-108,-199,1013,-280,-70,-420,-94,111,-435
18:37:25.401,,-108,-208,987,-1120,700,-980,-88,114,-436
18:37:25.420,,-112,-214,962,-1330,910,-1400,-87,105,-430
18:37:25.439,,-112,-207,970,-420,0,-1540,-96,109,-426
18:37:25.458,,-106,-189,1005,980,-1330,-1400,-85,117,-436
18:37:25.476,,-102,-181,1043,1050,-1750,-840,-93,115,-424
18:37:25.495,,-111,-192,1041,-210,-840,-70,-94,114,-435
18:37:25.514,,-117,-204,1008,-1540,560,420,-90,117,-427
18:37:25.533,,-121,-221,977,-2240,910,490,-91,109,-436
18:37:25.552,,-115,-224,981,-1540,350,210,-91,109,-430
18:37:25.570,,-115,-203,985,-630,280,-490,-93,111,-432
18:37:25.589,,-117,-206,978,-1890,420,-980,-93,124,-435
18:37:25.608,,-113,-215,983,-2310,-210,-770,-82,112,-435
18:37:25.627,,-108,-206,1006,-980,-910,-140,-100,114,-444
18:37:25.646,,-106,-197,1014,-840,-840,280,-99,121,-438
18:37:25.664,,-107,-202,1004,-1470,-70,350,-94,121,-441
18:37:25.683,,-117,-220,981,-2310,490,350,-93,118,-438
18:37:25.702,,-120,-237,980,-2100,-140,420,-93,123,-430
18:37:25.721,,-116,-226,1006,-210,-910,420,-100,114,-450
18:37:25.740,,-113,-207,1019,560,-420,-70,-84,114,-435
18:37:25.758,,-114,-211,994,-910,560,-350,-87,109,-427
18:37:25.777,,-120,-226,968,-1960,630,-210,-93,115,-433
18:37:25.796,,-120,-226,976,-980,-350,-70,-85,108,-429
18:37:25.815,,-115,-204,996,420,-1260,-350,-88,115,-430
18:37:25.833,,-111,-198,1014,420,-1260,-770,-91,117,-435
18:37:25.852,,-113,-201,1009,-140,-490,-910,-91,112,-435
18:37:25.871,,-117,-211,988,-700,-140,-840,-87,118,-438
18:37:25.890,,-113,-216,995,-70,-560,-770,-93,120,-436
18:37:25.909,,-109,-205,1016,1260,-910,-630,-96,112,-441
18:37:25.927,,-111,-193,1013,1190,-630,-840,-97,117,-441
18:37:25.946,,-111,-198,1016,350,-700,-910,-93,114,-439
18:37:25.965,,-117,-208,1018,420,-630,-700,-90,112,-441
18:37:25.984,,-118,-212,1007,-350,-280,-630,-100,114,-436
18:37:26.003,,-119,-220,1002,-910,-350,-630,-94,121,-435
18:37:26.021,,-114,-209,1017,0,-700,-490,-93,115,-432
18:37:26.040,,-107,-193,1039,630,-1260,-490,-84,117,-426
18:37:26.059,,-110,-196,1042,-350,-700,-490,-84,117,-426
18:37:26.078,,-122,-229,1012,-2590,350,-280,-94,105,-432
18:37:26.097,,-124,-239,993,-2240,210,70,-88,112,-432
18:37:26.115,,-111,-212,1011,350,-630,-140,-93,111,-421
18:37:26.134,,-101,-195,1041,1050,-840,-490,-88,108,-433
18:37:26.153,,-107,-204,1028,-700,-140,-490,-90,114,-432
18:37:26.172,,-121,-222,984,-2310,630,-420,-90,121,-439
18:37:26.190,,-122,-229,982,-1610,70,-350,-91,114,-432
18:37:26.209,,-113,-216,1016,560,-1260,-70,-90,111,-439
18:37:26.228,,-107,-191,1039,1400,-1330,-140,-96,112,-444
18:37:26.247,,-109,-189,1027,140,-560,-490,-88,118,-430
18:37:26.266,,-115,-216,1002,-1260,0,-490,-99,111,-433
18:37:26.284,,-119,-228,1000,-910,-350,-280,-93,108,-436
18:37:26.303,,-109,-209,1023,1120,-1050,-280,-90,117,-432
18:37:26.322,,-104,-182,1026,1260,-560,-910,-94,114,-430
18:37:26.341,,-109,-198,989,-980,840,-1540,-94,111,-435
18:37:26.360,,-118,-227,957,-2590,910,-1400,-96,114,-436
18:37:26.378,,-118,-222,967,-840,-350,-980,-91,117,-436
18:37:26.397,,-118,-222,967,-840,-980,-1190,-91,120,-439
18:37:26.416,,-106,-181,998,1400,-980,-1190,-91,118,-435
18:37:26.435,,-98,-176,1012,560,-840,-1260,-94,121,-442
18:37:26.454,,-105,-194,1004,-630,-420,-560,-100,111,-441
18:37:26.472,,-114,-200,989,-980,-280,70,-90,124,-432
18:37:26.491,,-114,-210,1000,-420,-910,140,-97,115,-438
18:37:26.510,,-110,-205,1028,560,-1050,210,-94,111,-438
18:37:26.529,,-112,-199,1027,420,-420,70,-87,120,-436
18:37:26.547,,-122,-209,991,-1400,490,-280,-96,108,-439
18:37:26.566,,-128,-232,978,-2520,420,-420,-94,115,-439
18:37:26.585,,-126,-233,991,-1610,-210,-140,-97,120,-438
18:37:26.604,,-118,-210,1001,-910,-630,-70,-93,111,-441
18:37:26.623,,-105,-196,1016,-560,-700,-210,-90,111,-441
18:37:26.641,,-104,-199,1027,-980,-630,140,-90,118,-436
18:37:26.660,,-110,-212,1011,-1610,-210,420,-85,111,-438
18:37:26.679,,-109,-220,997,-1610,-70,210,-94,111,-439
18:37:26.698,,-105,-222,1004,-490,-490,-70,-96,115,-435
18:37:26.751,,-113,-211,1008,70,-560,-1190,-78,123,-421
18:37:26.751,,-113,-211,1008,70,-560,-1190,-78,123,-421
18:37:26.754,,-113,-211,1008,70,-560,-1190,-78,123,-421
18:37:26.773,,-112,-210,1018,420,-910,-980,-96,117,-435
18:37:26.792,,-110,-197,1022,770,-770,-1050,-88,109,-436
18:37:26.811,,-110,-192,1011,280,-280,-1190,-90,111,-435
18:37:26.829,,-116,-202,1001,-630,70,-1120,-93,111,-438
18:37:26.848,,-119,-210,999,-980,0,-840,-99,114,-442
18:37:26.867,,-122,-207,999,-770,-140,-630,-88,115,-430
18:37:26.886,,-119,-205,1004,-840,-210,-420,-96,109,-438
18:37:26.904,,-115,-209,1006,-1050,-350,0,-93,109,-423
18:37:26.923,,-117,-210,1004,-1120,-210,420,-85,115,-436
18:37:26.942,,-113,-205,1002,-840,-280,420,-96,112,-441
18:37:26.961,,-105,-202,1011,-490,-420,210,-90,109,-436
18:37:26.980,,-110,-208,1007,-910,-140,-70,-87,109,-444
18:37:26.998,,-117,-215,997,-1260,-70,-350,-100,121,-435
18:37:27.017,,-118,-218,999,-980,-350,-630,-93,109,-436
18:37:27.036,,-113,-215,1013,-350,-700,-770,-88,109,-430
18:37:27.055,,-107,-208,1029,140,-910,-700,-88,109,-430
18:37:27.074,,-107,-202,1035,140,-840,-490,-97,118,-444
18:37:27.092,,-110,-207,1025,-770,-280,-280,-91,117,-430
18:37:27.111,,-120,-224,995,-2100,490,-350,-93,112,-436
18:37:27.130,,-119,-228,988,-1750,70,-560,-91,115,-438
18:37:27.149,,-116,-208,1010,70,-840,-770,-88,115,-442
18:37:27.168,,-107,-194,1037,280,-1190,-910,-90,120,-439
18:37:27.186,,-110,-204,1038,-1330,-770,-700,-91,114,-439
18:37:27.205,,-119,-223,1015,-2030,-140,-140,-96,112,-435
18:37:27.224,,-120,-217,997,-1540,70,0,-88,112,-435
18:37:27.243,,-118,-219,1005,-840,-210,-350,-99,117,-435
18:37:27.261,,-114,-211,1020,-280,-420,-560,-94,114,-436
18:37:27.280,,-114,-200,1013,-350,-210,-1050,-88,120,-433
18:37:27.299,,-117,-209,1004,-1400,0,-1260,-97,111,-438
18:37:27.318,,-121,-233,1016,-1680,-420,-490,-90,106,-432
18:37:27.337,,-120,-225,1014,-910,-350,210,-88,114,-436
18:37:27.355,,-115,-208,1000,-980,70,-70,-96,114,-442
18:37:27.374,,-113,-222,1006,-1400,-140,-210,-97,114,-438
18:37:27.393,,-117,-231,1016,-1190,-630,140,-94,108,-438
18:37:27.412,,-119,-223,1020,-700,-980,0,-87,121,-441
18:37:27.431,,-114,-213,1043,140,-1260,-210,-93,111,-433
18:37:27.449,,-111,-216,1059,280,-1260,-210,-87,112,-436
18:37:27.468,,-109,-219,1053,210,-770,-420,-91,109,-430
18:37:27.487,,-112,-218,1039,140,-210,-840,-91,108,-432
18:37:27.506,,-117,-225,1041,0,-350,-840,-85,114,-426
18:37:27.525,,-123,-224,1039,-140,-420,-910,-94,120,-429
18:37:27.543,,-125,-227,1029,-770,-210,-1260,-94,111,-435
18:37:27.562,,-122,-230,1034,-980,-560,-1120,-93,109,-445
18:37:27.581,,-124,-213,1041,-350,-700,-700,-94,115,-429
18:37:27.600,,-116,-202,1044,-490,-560,-770,-84,112,-433
18:37:27.618,,-113,-213,1041,-1120,-420,-560,-91,117,-435
18:37:27.637,,-116,-226,1036,-1330,-350,-70,-93,115,-426
18:37:27.656,,-120,-231,1034,-1190,-420,70,-90,111,-436
18:37:27.675,,-117,-222,1042,70,-630,-140,-91,112,-438
18:37:27.694,,-115,-214,1054,560,-560,-280,-90,114,-433
18:37:27.712,,-115,-218,1052,140,-560,-210,-90,108,-438
18:37:27.731,,-120,-219,1032,-280,-140,-490,-93,112,-438
18:37:27.750,,-121,-227,1028,-490,-210,-840,-85,112,-433
18:37:27.769,,-116,-220,1032,350,-560,-980,-88,108,-438
18:37:27.788,,-112,-203,1043,910,-700,-1330,-85,111,-438
18:37:27.806,,-112,-212,1051,280,-770,-1120,-87,115,-447
18:37:27.825,,-117,-223,1038,-560,-560,-560,-97,115,-438
18:37:27.844,,-111,-223,1042,-280,-840,-280,-93,115,-433
18:37:27.863,,-106,-223,1073,630,-1610,210,-93,114,-447
18:37:27.882,,-110,-210,1085,980,-1260,420,-93,115,-439
18:37:27.900,,-116,-216,1053,-420,70,-70,-93,108,-435
18:37:27.919,,-119,-230,1017,-1260,490,-700,-96,115,-439
18:37:27.938,,-116,-230,1034,140,-280,-840,-93,114,-435
18:37:27.957,,-113,-196,1059,1610,-1050,-980,-96,111,-438
18:37:27.975,,-110,-184,1050,630,-490,-1470,-82,111,-435
18:37:27.994,,-119,-206,1017,-1470,420,-1540,-93,115,-444
18:37:28.013,,-126,-230,1006,-1680,-140,-840,-97,117,-441
18:37:28.032,,-126,-216,1027,-140,-1120,-70,-96,106,-436
18:37:28.051,,-112,-203,1055,490,-1400,70,-96,106,-436
18:37:28.069,,-112,-198,1052,0,-630,70,-90,118,-438
18:37:28.088,,-115,-217,1042,-1050,-70,350,-97,114,-433
18:37:28.107,,-119,-229,1025,-1190,210,630,-93,111,-433
18:37:28.126,,-117,-220,1015,-490,280,350,-93,112,-429
18:37:28.145,,-111,-211,1018,70,70,-350,-85,118,-438
18:37:28.163,,-108,-212,1032,70,-280,-630,-90,123,-433
18:37:28.182,,-112,-212,1021,-70,-280,-700,-96,111,-438
18:37:28.201,,-112,-208,1021,-70,-280,-700,-99,112,-435
18:37:28.220,,-109,-212,1016,-280,-630,-770,-97,118,-438
18:37:28.238,,-99,-200,1037,1260,-1120,-840,-93,112,-439
18:37:28.257,,-102,-187,1051,1750,-910,-910,-97,117,-441
18:37:28.276,,-106,-199,1045,420,-770,-840,-97,121,-436
18:37:28.295,,-115,-212,1045,0,-770,-560,-94,111,-442
18:37:28.314,,-121,-223,1044,-490,-630,-280,-90,114,-438
18:37:28.332,,-125,-231,1042,-700,-420,-140,-96,109,-433
18:37:28.351,,-123,-217,1043,-70,-210,0,-90,111,-433
18:37:28.370,,-121,-200,1028,-420,210,-280,-84,111,-430
18:37:28.389,,-114,-204,1016,-1330,280,-700,-88,109,-427
18:37:28.408,,-112,-205,1024,-1120,-140,-840,-88,109,-432
18:37:28.426,,-108,-199,1044,-560,-840,-560,-87,112,-427
18:37:28.445,,-106,-192,1064,-140,-1120,-350,-91,114,-424
18:37:28.464,,-112,-202,1046,-1050,70,-280,-93,112,-427
18:37:28.483,,-120,-220,994,-2240,1330,-490,-93,106,-441
18:37:28.502,,-117,-228,980,-1610,770,-770,-100,117,-432
18:37:28.520,,-112,-215,1019,350,-770,-700,-93,114,-438
18:37:28.539,,-109,-193,1046,630,-1050,-490,-96,114,-436
18:37:28.558,,-109,-192,1024,-910,-420,-560,-93,115,-432
18:37:28.577,,-110,-211,1015,-1610,0,-350,-91,115,-438
18:37:28.595,,-112,-222,1025,-1260,-280,350,-93,115,-436
18:37:28.614,,-115,-209,1022,-700,-420,350,-96,109,-436
18:37:28.633,,-108,-202,1030,-420,-560,-280,-93,123,-436
18:37:28.652,,-109,-210,1032,-980,-280,-490,-90,114,-448
18:37:28.671,,-118,-226,1021,-1750,0,-210,-93,108,-439
18:37:28.689,,-122,-221,1011,-1330,140,-210,-87,106,-427
18:37:28.708,,-111,-210,1016,-770,-280,-420,-90,115,-430
18:37:28.727,,-110,-208,1023,-560,-420,-490,-85,114,-429
18:37:28.746,,-113,-210,1024,-980,-350,-420,-87,106,-441
18:37:28.765,,-115,-213,1024,-840,-630,-280,-94,115,-436
18:37:28.783,,-113,-211,1033,-490,-630,-350,-94,115,-433
18:37:28.802,,-117,-213,1029,-420,-140,-420,-90,112,-445
18:37:28.821,,-119,-216,1017,-770,210,-350,-94,111,-444
18:37:28.840,,-123,-213,996,-840,490,-490,-99,117,-439
18:37:28.859,,-123,-220,987,-1400,420,-700,-97,117,-435
18:37:28.877,,-123,-225,982,-1470,0,-560,-88,114,-439
18:37:28.896,,-120,-205,994,-420,-700,-560,-93,115,-435
18:37:28.915,,-109,-193,1019,140,-1190,-490,-94,117,-444
18:37:28.934,,-108,-200,1036,-280,-1190,-140,-96,115,-433
18:37:28.953,,-113,-214,1027,-910,-560,350,-90,115,-436
18:37:28.971,,-122,-225,998,-1470,0,210,-90,118,-438
18:37:28.990,,-115,-234,1009,-630,-630,-70,-87,108,-430
18:37:29.009,,-114,-222,1040,840,-980,70,-88,105,-433
18:37:29.028,,-119,-215,1032,140,-350,-70,-88,105,-433
18:37:29.046,,-119,-219,1001,-1120,210,-630,-87,108,-435
18:37:29.065,,-116,-232,992,-1260,0,-700,-93,114,-441
18:37:29.084,,-115,-217,1013,140,-840,-420,-87,111,-435
18:37:29.103,,-114,-200,1031,630,-1120,-420,-90,115,-436
18:37:29.122,,-116,-208,1023,-770,-630,-490,-88,117,-439
18:37:29.140,,-117,-228,1012,-1260,-560,-350,-87,111,-432
18:37:29.159,,-118,-228,1016,-70,-840,70,-91,117,-427
18:37:29.178,,-118,-213,1028,630,-770,70,-88,106,-429
18:37:29.197,,-120,-208,1017,420,-350,-350,-82,115,-430
18:37:29.216,,-121,-222,1002,-630,-210,-630,-78,114,-433
18:37:29.234,,-123,-228,1001,-140,-560,-630,-88,108,-429
18:37:29.253,,-121,-208,1012,1050,-980,-630,-90,112,-441
18:37:29.272,,-117,-193,1021,1120,-910,-910,-90,121,-433
18:37:29.291,,-114,-198,1020,490,-700,-1050,-85,109,-432
18:37:29.309,,-113,-209,1009,210,-630,-980,-84,108,-435
18:37:29.328,,-112,-210,1014,560,-770,-910,-93,109,-427
18:37:29.347,,-116,-209,1017,560,-700,-770,-94,108,-432
18:37:29.366,,-118,-218,1020,210,-910,-490,-96,115,-433
18:37:29.385,,-114,-213,1026,630,-1120,-350,-94,114,-439
18:37:29.403,,-107,-201,1036,1120,-1190,-490,-99,109,-433
18:37:29.422,,-104,-201,1036,980,-840,-630,-100,109,-433
18:37:29.441,,-110,-209,1019,-70,-140,-770,-102,114,-435
18:37:29.460,,-113,-223,1009,-770,-350,-630,-91,112,-438
18:37:29.479,,-112,-216,1023,140,-1190,-420,-87,105,-430
18:37:29.497,,-107,-201,1051,770,-1540,-350,-91,115,-421
18:37:29.516,,-106,-195,1053,630,-1050,-350,-96,118,-426
18:37:29.535,,-110,-196,1034,-70,-490,-420,-99,118,-433
18:37:29.554,,-111,-207,1039,-70,-700,-420,-93,106,-435
18:37:29.573,,-115,-208,1047,140,-770,-420,-94,117,-432
18:37:29.591,,-114,-199,1038,210,-630,-840,-91,106,-427
18:37:29.610,,-114,-194,1034,280,-210,-1260,-102,114,-429
18:37:29.629,,-118,-195,1027,-140,0,-1400,-96,117,-429
18:37:29.648,,-118,-204,1017,-700,140,-1330,-90,112,-433
18:37:29.666,,-110,-208,1027,-840,-560,-910,-93,114,-438
18:37:29.685,,-105,-195,1050,210,-1120,-280,-105,114,-433
18:37:29.704,,-104,-174,1044,280,-420,-420,-96,117,-439
18:37:29.723,,-99,-189,1031,-980,140,-700,-87,115,-427
18:37:29.742,,-104,-210,1027,-1330,-70,-350,-96,115,-435
18:37:29.760,,-110,-205,1028,-840,-140,-420,-87,106,-438
18:37:29.779,,-108,-203,1019,-1120,0,-840,-87,114,-429
18:37:29.798,,-102,-191,1016,-630,280,-1120,-94,112,-424
18:37:29.817,,-98,-183,1020,-630,280,-1120,-96,109,-433
18:37:29.836,,-107,-194,1003,-2030,420,-770,-91,109,-442
18:37:29.854,,-115,-199,984,-2660,560,-700,-91,118,-432
18:37:29.873,,-109,-210,998,-2660,-140,-420,-93,108,-441
18:37:29.892,,-113,-212,1015,-2240,-490,420,-99,108,-441
18:37:29.911,,-121,-210,1015,-2800,210,980,-93,120,-438
18:37:29.930,,-123,-221,981,-3920,770,1190,-96,112,-432
18:37:29.948,,-116,-223,968,-3220,770,910,-93,112,-444
18:37:29.967,,-110,-214,969,-2030,980,420,-87,111,-442
18:37:29.986,,-110,-214,969,-2030,980,420,-91,117,-436
18:37:30.005,,-113,-196,952,-2030,1190,-140,-91,117,-436
18:37:30.023,,-112,-189,945,-1750,770,-1120,-87,118,-436
18:37:30.042,,-108,-195,965,-1330,-70,-1400,-87,112,-444
18:37:30.061,,-109,-207,977,-840,-560,-910,-94,112,-433
18:37:30.080,,-114,-203,977,-560,-490,-490,-94,114,-435
18:37:30.099,,-111,-208,996,-210,-1050,-70,-96,112,-439
18:37:30.117,,-118,-210,1007,140,-980,210,-85,115,-435
18:37:30.136,,-120,-220,1005,-840,-490,210,-87,118,-429
18:37:30.155,,-118,-220,1000,-630,-420,70,-87,115,-430
18:37:30.174,,-118,-213,1004,-140,-140,-350,-88,112,-432
18:37:30.193,,-123,-219,993,-1330,280,-910,-94,114,-432
18:37:30.211,,-125,-232,982,-2310,280,-910,-85,111,-432
18:37:30.230,,-116,-226,996,-1540,-490,-700,-87,111,-432
18:37:30.249,,-111,-208,1011,-840,-840,-490,-93,112,-441
18:37:30.268,,-111,-216,1012,-2030,-490,-210,-94,118,-439
18:37:30.286,,-115,-231,1001,-2520,-350,140,-88,117,-436
18:37:30.305,,-111,-228,1008,-1120,-840,210,-94,111,-435
18:37:30.324,,-107,-213,1028,280,-1260,0,-100,115,-436
18:37:30.343,,-111,-215,1039,280,-910,-350,-91,115,-436
18:37:30.362,,-118,-224,1021,-420,70,-770,-88,106,-436
18:37:30.380,,-127,-239,990,-1400,560,-910,-93,112,-429
18:37:30.399,,-129,-243,985,-840,0,-840,-91,118,-436
18:37:30.418,,-125,-211,998,700,-630,-980,-94,109,-438
18:37:30.437,,-119,-196,1008,420,-840,-1470,-93,114,-438
18:37:30.456,,-114,-199,1020,140,-1260,-1470,-94,112,-433
18:37:30.474,,-111,-195,1031,770,-1330,-1120,-100,112,-436
18:37:30.493,,-111,-195,1026,420,-700,-1120,-99,114,-441
18:37:30.512,,-112,-215,1008,-350,-140,-1050,-94,108,-439
18:37:30.531,,-114,-214,994,210,0,-1190,-88,109,-436
18:37:30.550,,-114,-217,1000,140,-350,-1400,-96,109,-430
18:37:30.568,,-117,-225,1016,-70,-1120,-1050,-96,115,-435
18:37:30.587,,-112,-210,1033,770,-1470,-630,-99,111,-444
18:37:30.606,,-105,-186,1045,1330,-1400,-560,-91,120,-438
18:37:30.625,,-102,-192,1054,770,-1050,-420,-94,112,-433
18:37:30.644,,-111,-210,1040,-630,-490,-140,-88,112,-448
18:37:30.662,,-117,-218,1025,-840,-280,-140,-97,106,-442
18:37:30.681,,-120,-224,1031,-910,-630,-420,-91,112,-430
18:37:30.700,,-122,-242,1057,-910,-1050,-70,-91,115,-427
18:37:30.719,,-125,-226,1049,-560,-560,140,-85,118,-432
18:37:30.737,,-123,-222,1031,-1330,0,-140,-93,109,-435
18:37:30.756,,-116,-234,1046,-1190,-630,280,-94,108,-432
18:37:30.775,,-112,-220,1059,0,-910,770,-93,112,-436
18:37:30.794,,-108,-206,1054,-210,-630,490,-91,112,-433
18:37:30.813,,-112,-217,1046,-840,-420,140,-88,111,-438
18:37:30.831,,-116,-226,1047,-350,-350,-140,-93,112,-435
18:37:30.850,,-114,-219,1041,560,-140,-630,-94,112,-427
18:37:30.869,,-110,-210,1032,770,-70,-1260,-91,112,-427
18:37:30.888,,-109,-210,1039,840,-350,-1330,-91,112,-438
18:37:30.907,,-113,-203,1033,770,-280,-1260,-91,115,-433
18:37:30.925,,-116,-201,1013,0,140,-1400,-90,117,-439
18:37:30.944,,-117,-210,1008,-420,-70,-1330,-94,112,-435
18:37:30.963,,-116,-210,1020,-70,-770,-770,-91,117,-432
18:37:30.982,,-116,-209,1033,-280,-1120,-280,-91,117,-432
18:37:31.000,,-117,-210,1035,-630,-770,140,-97,108,-430
18:37:31.019,,-120,-214,1025,-1050,-280,560,-85,114,-433
18:37:31.038,,-123,-218,1021,-1120,-280,840,-87,112,-432
18:37:31.057,,-123,-217,1017,-840,-280,630,-90,120,-442
18:37:31.076,,-122,-219,1010,-1050,-280,210,-93,114,-435
18:37:31.094,,-116,-226,1017,-840,-630,-210,-94,118,-444
18:37:31.113,,-114,-213,1026,210,-490,-420,-87,109,-427
18:37:31.132,,-116,-215,1015,-770,-140,-490,-90,109,-436
18:37:31.151,,-121,-238,1008,-1680,-210,-70,-85,115,-441
18:37:31.170,,-125,-238,1008,-1120,-420,420,-97,115,-439
18:37:31.188,,-117,-226,1015,-140,-840,350,-90,114,-436
18:37:31.207,,-107,-214,1039,840,-1330,70,-94,111,-433
18:37:31.226,,-109,-211,1054,980,-1050,140,-88,111,-438
18:37:31.245,,-111,-215,1036,280,-420,0,-94,109,-436
18:37:31.263,,-110,-215,1010,210,70,-630,-97,114,-438
18:37:31.282,,-110,-220,1008,700,-210,-1050,-96,114,-438
18:37:31.301,,-115,-208,1018,1400,-770,-1190,-96,112,-430
18:37:31.320,,-115,-198,1025,1330,-910,-1750,-93,112,-441
18:37:31.339,,-113,-204,1030,630,-1120,-1820,-90,112,-427
18:37:31.357,,-113,-205,1032,840,-1190,-1330,-88,99,-433
18:37:31.376,,-112,-193,1027,1120,-700,-1260,-93,115,-439
18:37:31.395,,-110,-199,1014,140,-70,-1260,-96,114,-435
18:37:31.414,,-116,-210,997,-630,140,-1050,-97,109,-438
18:37:31.433,,-118,-208,1001,-420,-210,-910,-90,112,-436
18:37:31.451,,-117,-203,1019,-210,-700,-630,-93,114,-444
18:37:31.470,,-115,-200,1030,-280,-770,-70,-102,118,-429
18:37:31.489,,-114,-197,1026,-490,-350,210,-96,114,-433
18:37:31.508,,-113,-206,1021,-840,-350,210,-99,115,-441
18:37:31.526,,-110,-207,1026,-350,-490,280,-91,120,-438
18:37:31.545,,-109,-198,1024,-70,-280,-140,-94,112,-439
18:37:31.564,,-107,-215,1021,-980,-210,-630,-102,112,-433
18:37:31.583,,-117,-227,1018,-1330,-140,-490,-97,115,-441
18:37:31.602,,-124,-225,1018,-1260,-70,-210,-91,109,-430
18:37:31.620,,-118,-218,1015,-1050,-280,-210,-94,112,-442
18:37:31.639,,-113,-217,1025,-980,-490,-70,-96,117,-439
18:37:31.658,,-109,-207,1024,-700,-560,70,-93,111,-429
18:37:31.677,,-110,-201,1019,-770,-420,-140,-84,105,-429
18:37:31.696,,-111,-212,1028,-1050,-630,-280,-90,112,-430
18:37:31.714,,-114,-217,1028,-770,-560,-140,-87,108,-435
18:37:31.733,,-116,-207,1012,-280,-280,-350,-90,108,-429
18:37:31.752,,-111,-200,1011,0,-70,-910,-96,112,-439
18:37:31.771,,-111,-200,1011,-210,-210,-980,-91,111,-436
18:37:31.790,,-114,-205,1013,-210,-210,-980,-94,114,-435
18:37:31.808,,-117,-205,1010,-350,-350,-910,-97,112,-436
18:37:31.827,,-119,-204,1003,-560,-420,-1050,-99,106,-432
18:37:31.846,,-114,-205,1010,-420,-560,-980,-97,115,-439
18:37:31.865,,-112,-205,1024,-70,-700,-420,-97,108,-436
18:37:31.883,,-115,-200,1021,-420,-210,-210,-93,121,-426
18:37:31.902,,-121,-216,992,-1960,630,-210,-90,106,-433
18:37:31.921,,-124,-237,972,-2590,700,0,-90,106,-433
18:37:31.940,,-120,-222,985,-910,-210,140,-90,109,-435
18:37:31.959,,-109,-196,1024,770,-1330,70,-90,109,-435
18:37:31.977,,-101,-189,1039,700,-1260,-210,-85,111,-429
18:37:31.996,,-104,-195,1013,-350,0,-630,-90,108,-429
18:37:32.015,,-105,-220,999,-980,-70,-560,-93,114,-436
18:37:32.034,,-111,-231,1010,-140,-630,-210,-105,109,-441
18:37:32.053,,-116,-215,1015,280,-420,-490,-91,105,-435
18:37:32.071,,-118,-216,1004,-420,-280,-910,-91,118,-433
18:37:32.090,,-120,-215,1007,-420,-420,-770,-88,115,-436
18:37:32.109,,-121,-200,1018,0,-490,-630,-96,112,-433
18:37:32.128,,-119,-202,1008,-980,-420,-560,-96,115,-432
18:37:32.146,,-115,-204,1007,-910,-560,-420,-91,114,-429
18:37:32.165,,-111,-194,1014,-140,-560,-350,-81,111,-433
18:37:32.184,,-113,-196,1009,-630,-350,-630,-96,109,-432
18:37:32.203,,-117,-213,1002,-1190,140,-770,-96,108,-438
18:37:32.222,,-120,-216,981,-1120,210,-770,-96,118,-436
18:37:32.240,,-111,-204,986,-140,-560,-1050,-91,109,-430
18:37:32.259,,-99,-194,1026,1260,-1330,-1050,-91,111,-432
18:37:32.278,,-98,-179,1039,1120,-1050,-840,-93,112,-439
18:37:32.297,,-108,-194,1009,-770,70,-840,-97,111,-436
18:37:32.316,,-116,-221,974,-2310,770,-770,-94,112,-436
18:37:32.334,,-119,-234,976,-1960,420,-350,-91,112,-438
18:37:32.353,,-124,-224,981,-1330,70,-140,-94,106,-439
18:37:32.372,,-118,-205,988,-1330,-140,-210,-94,112,-438
18:37:32.391,,-114,-198,986,-1680,-210,-210,-96,114,-444
18:37:32.409,,-113,-217,992,-2310,-770,210,-85,112,-435
18:37:32.428,,-106,-210,1024,-770,-1680,840,-91,120,-439
18:37:32.447,,-104,-188,1045,560,-1400,700,-94,111,-435
18:37:32.466,,-109,-210,1029,-1330,-280,280,-94,106,-435
18:37:32.485,,-126,-242,992,-2310,560,70,-85,118,-439
18:37:32.503,,-130,-242,978,-1400,140,-420,-90,111,-430
18:37:32.522,,-124,-226,1001,350,-840,-1120,-94,112,-435
18:37:32.541,,-114,-200,1022,1190,-840,-1610,-90,115,-435
18:37:32.560,,-112,-183,995,0,210,-2170,-99,118,-435
18:37:32.579,,-110,-197,972,-1330,210,-2240,-91,111,-435
18:37:32.597,,-105,-204,999,-490,-1120,-1260,-93,106,-438
18:37:32.616,,-104,-191,1033,840,-1820,-560,-93,115,-438
18:37:32.635,,-114,-197,1025,-350,-840,-490,-90,114,-429
18:37:32.654,,-120,-225,1008,-1680,0,-420,-82,109,-429
18:37:32.672,,-120,-235,1005,-840,-210,-70,-94,118,-430
18:37:32.691,,-114,-213,1019,630,-630,-70,-96,118,-444
18:37:32.710,,-102,-196,1040,910,-770,-420,-100,117,-442
18:37:32.729,,-105,-192,1029,-280,-140,-560,-100,114,-435
18:37:32.748,,-108,-209,1017,-1400,-70,-700,-102,115,-438
18:37:32.766,,-113,-214,1019,-1120,-490,-700,-93,114,-438
18:37:32.785,,-115,-218,1032,-1050,-630,-770,-97,117,-436
18:37:32.804,,-118,-226,1023,-1470,-350,-840,-91,118,-435
18:37:32.823,,-117,-223,1009,-1680,-70,-910,-94,109,-442
18:37:32.842,,-115,-225,1018,-1470,-350,-770,-88,106,-436
18:37:32.860,,-118,-221,1026,-1260,-630,-140,-88,114,-438
18:37:32.879,,-114,-207,1031,-770,-700,70,-91,106,-435
18:37:32.898,,-108,-203,1037,-420,-560,-210,-94,112,-439
18:37:32.917,,-111,-215,1037,-910,-350,-210,-94,121,-445
18:37:32.936,,-114,-223,1031,-700,-140,-210,-94,121,-445
18:37:32.954,,-118,-209,1007,-490,350,-700,-93,109,-438
18:37:32.973,,-119,-221,993,-1330,490,-1330,-87,115,-430
18:37:32.992,,-123,-223,991,-1400,140,-1610,-90,118,-424
18:37:33.011,,-115,-212,1005,-420,-560,-1610,-87,106,-436
18:37:33.029,,-107,-187,1020,420,-980,-1540,-90,114,-420
18:37:33.048,,-103,-185,1029,210,-910,-1190,-87,102,-433
18:37:33.067,,-106,-203,1029,-630,-700,-560,-82,109,-429
18:37:33.086,,-114,-221,1019,-1260,-350,210,-87,112,-430
18:37:33.105,,-116,-224,1015,-700,-210,490,-91,108,-432
18:37:33.123,,-115,-216,1009,70,0,140,-90,114,-427
18:37:33.142,,-113,-213,1007,-70,0,-490,-96,112,-432
18:37:33.161,,-109,-209,1020,280,-560,-630,-99,115,-429
18:37:33.180,,-107,-200,1022,280,-700,-560,-97,117,-435
18:37:33.199,,-111,-199,1016,-420,-560,-560,-99,114,-439
18:37:33.217,,-114,-212,1022,-630,-700,-350,-94,118,-427
18:37:33.236,,-117,-216,1031,-420,-910,0,-87,106,-435
18:37:33.255,,-116,-220,1038,-350,-700,70,-88,102,-429
18:37:33.274,,-119,-228,1021,-980,-140,280,-93,109,-429
18:37:33.292,,-120,-228,1007,-980,280,210,-90,111,-426
18:37:33.311,,-117,-223,1008,-560,0,140,-82,105,-433
18:37:33.330,,-114,-214,1009,-420,-280,70,-91,111,-427
18:37:33.349,,-109,-201,1020,70,-490,-210,-84,112,-438
18:37:33.368,,-111,-206,1026,-280,-700,-280,-94,111,-429
18:37:33.386,,-112,-213,1028,-350,-630,-280,-99,108,-435
18:37:33.405,,-110,-207,1027,280,-490,-350,-91,112,-438
18:37:33.424,,-117,-209,1004,70,350,-700,-99,115,-439
18:37:33.443,,-121,-220,984,-770,630,-1050,-87,120,-433
18:37:33.462,,-115,-227,999,-70,-490,-910,-91,112,-438
18:37:33.480,,-113,-210,1017,910,-1190,-490,-94,112,-442
18:37:33.499,,-106,-193,1031,910,-1260,-350,-96,111,-430
18:37:33.518,,-104,-194,1032,420,-980,-70,-99,118,-433
18:37:33.537,,-110,-205,1029,0,-560,140,-91,114,-436
18:37:33.555,,-114,-210,1029,0,-560,70,-99,115,-439
18:37:33.574,,-114,-210,1029,0,-560,70,-94,118,-432
18:37:33.593,,-115,-220,1038,-140,-910,0,-97,111,-439
18:37:33.612,,-116,-217,1051,350,-770,-140,-97,117,-435
18:37:33.631,,-119,-212,1037,0,70,-560,-99,114,-441
18:37:33.649,,-122,-217,1017,-770,420,-840,-94,118,-435
18:37:33.668,,-121,-219,1021,-700,140,-770,-93,111,-432
18:37:33.687,,-115,-209,1028,-490,-560,-700,-93,109,-424
18:37:33.706,,-106,-205,1038,-420,-770,-630,-94,118,-430
18:37:33.725,,-110,-199,1029,-700,-140,-630,-97,111,-439
18:37:33.743,,-114,-206,1018,-1050,0,-630,-97,109,-430
18:37:33.762,,-112,-218,1030,-700,-420,-420,-91,117,-427
18:37:33.781,,-112,-210,1039,0,-560,-210,-82,117,-421
18:37:33.800,,-109,-206,1028,-70,-210,-420,-93,108,-429
18:37:33.819,,-113,-209,1013,-630,280,-630,-97,118,-445
18:37:33.837,,-118,-222,1006,-1120,280,-420,-93,121,-438
18:37:33.856,,-118,-218,1002,-910,-280,-140,-88,117,-438
18:37:33.875,,-113,-207,1015,-280,-770,-280,-90,100,-430
18:37:33.894,,-109,-202,1027,-210,-840,-420,-90,108,-430
18:37:33.912,,-112,-202,1027,-210,-630,-350,-90,108,-430
18:37:33.931,,-112,-202,1031,-70,-840,-280,-93,111,-430
18:37:33.950,,-111,-207,1052,70,-1190,-140,-87,114,-430
18:37:33.969,,-114,-218,1063,-70,-840,140,-96,114,-441
18:37:33.988,,-126,-226,1027,-1470,490,140,-100,114,-445
18:37:34.006,,-132,-237,990,-2310,1190,-210,-93,118,-436
18:37:34.025,,-128,-236,986,-1330,420,-560,-93,117,-433
18:37:34.044,,-114,-205,1021,630,-980,-910,-94,111,-436
18:37:34.063,,-100,-179,1053,1260,-1330,-1190,-96,115,-438
18:37:34.082,,-101,-186,1040,-490,-490,-1190,-91,115,-436
18:37:34.100,,-108,-213,1020,-1540,-280,-630,-96,114,-438
18:37:34.119,,-112,-225,1036,-490,-840,0,-90,108,-430
18:37:34.138,,-112,-218,1052,630,-980,140,-90,108,-433
18:37:34.157,,-113,-204,1039,490,-210,-350,-90,109,-433
18:37:34.176,,-116,-216,1018,-560,350,-840,-90,109,-438
18:37:34.194,,-121,-224,1005,-840,210,-840,-93,117,-430
18:37:34.213,,-117,-202,1012,210,-280,-1050,-99,114,-439
18:37:34.232,,-111,-187,1031,350,-630,-1260,-90,118,-435
18:37:34.251,,-116,-191,1028,-840,-420,-1050,-94,115,-438
18:37:34.269,,-121,-209,1007,-1890,140,-700,-96,117,-442
18:37:34.288,,-123,-224,995,-2310,0,-210,-97,123,-436
18:37:34.307,,-119,-224,1024,-1120,-980,420,-97,109,-439
18:37:34.326,,-114,-211,1059,70,-1330,770,-87,111,-433
18:37:34.345,,-111,-202,1039,-560,-280,560,-93,108,-427
18:37:34.363,,-109,-212,1007,-1260,560,-70,-97,109,-432
18:37:34.382,,-106,-223,1004,-700,70,-210,-87,115,-430
18:37:34.401,,-111,-202,1016,630,-490,-490,-91,109,-439
18:37:34.420,,-109,-185,1021,840,-420,-1470,-97,115,-442
18:37:34.439,,-108,-198,1009,-490,-210,-1890,-90,114,-445
18:37:34.457,,-114,-213,1007,-630,-350,-1400,-93,115,-429
18:37:34.476,,-120,-210,1014,-280,-630,-700,-93,117,-429
18:37:34.495,,-115,-205,1023,-350,-980,-280,-82,108,-427
18:37:34.514,,-110,-203,1035,-280,-840,-70,-94,111,-424
18:37:34.532,,-118,-209,1019,-1330,0,140,-94,109,-435
18:37:34.551,,-127,-225,992,-2380,560,140,-96,114,-438
18:37:34.570,,-119,-230,992,-1750,210,-70,-85,115,-439
18:37:34.589,,-111,-211,1002,-560,-210,-280,-91,115,-438
18:37:34.608,,-106,-195,1005,-280,-70,-490,-91,115,-442
18:37:34.626,,-106,-187,998,-630,70,-840,-88,115,-442
18:37:34.645,,-107,-200,988,-910,-210,-910,-88,115,-433
18:37:34.664,,-106,-203,1003,-70,-910,-630,-93,111,-436
18:37:34.683,,-107,-190,1015,910,-1050,-630,-94,115,-433
18:37:34.702,,-109,-192,1012,490,-490,-1050,-90,112,-433
18:37:34.720,,-114,-207,997,-350,70,-980,-93,118,-442
18:37:34.739,,-123,-220,984,-1050,70,-700,-90,112,-438
18:37:34.758,,-124,-224,989,-840,-350,-280,-90,114,-439
18:37:34.777,,-115,-207,1006,-350,-910,0,-93,120,-433
18:37:34.796,,-111,-201,1020,-490,-910,280,-82,115,-435
18:37:34.814,,-114,-204,1016,-1400,-420,490,-88,112,-430
18:37:34.833,,-118,-217,998,-2240,70,560,-90,108,-432
18:37:34.852,,-116,-230,992,-1890,-210,490,-94,114,-423
18:37:34.871,,-111,-214,1003,-420,-630,70,-85,103,-430
18:37:34.889,,-108,-205,1012,-140,-560,-420,-85,103,-430
18:37:34.908,,-110,-216,1002,-840,-140,-700,-84,111,-433
18:37:34.927,,-115,-221,985,-980,210,-630,-85,109,-432
18:37:34.946,,-114,-220,981,-420,-280,-560,-85,114,-436
18:37:34.965,,-113,-209,997,280,-840,-490,-91,114,-439
18:37:34.983,,-114,-204,1011,350,-1050,-420,-85,114,-429
18:37:35.002,,-114,-205,1018,210,-1400,-280,-87,115,-433
18:37:35.021,,-115,-203,1029,560,-1190,-280,-93,111,-439
18:37:35.040,,-124,-217,1011,-350,-210,-420,-88,111,-436
18:37:35.059,,-125,-231,989,-980,0,-420,-90,115,-433
18:37:35.077,,-118,-212,994,770,-350,-770,-94,109,-445
18:37:35.096,,-113,-195,1010,910,-490,-1120,-78,111,-435
18:37:35.115,,-115,-198,1000,0,-280,-1190,-100,112,-436
18:37:35.134,,-109,-203,992,-280,-490,-1260,-87,114,-433
18:37:35.152,,-106,-199,1007,490,-1190,-1050,-90,117,-424
18:37:35.171,,-104,-194,1029,910,-1400,-630,-94,111,-436
18:37:35.190,,-109,-201,1021,70,-630,-560,-93,102,-427
18:37:35.209,,-118,-214,998,-770,-140,-560,-91,112,-435
18:37:35.228,,-119,-225,1013,-70,-910,-280,-90,111,-435
18:37:35.246,,-116,-216,1043,770,-1470,70,-88,108,-429
18:37:35.265,,-110,-197,1051,1190,-1260,-140,-94,111,-429
18:37:35.284,,-107,-193,1042,280,-630,-700,-97,114,-439
18:37:35.303,,-114,-217,1030,-1260,-70,-840,-91,112,-432
18:37:35.322,,-125,-225,1009,-1680,210,-490,-105,111,-436
18:37:35.340,,-121,-223,1002,-1190,-280,-630,-90,114,-432
18:37:35.359,,-121,-223,1002,420,-1190,-700,-94,106,-432
18:37:35.378,,-108,-206,1033,420,-1190,-700,-93,109,-430
18:37:35.397,,-107,-195,1049,700,-1120,-630,-85,111,-430
18:37:35.415,,-109,-199,1030,-560,-420,-700,-90,111,-435
18:37:35.434,,-111,-207,1011,-840,70,-910,-88,108,-426
18:37:35.453,,-103,-200,1013,420,-280,-1050,-94,111,-436
18:37:35.472,,-99,-197,1034,1050,-770,-1120,-97,117,-436
18:37:35.491,,-107,-188,1031,840,-350,-1330,-96,112,-436
18:37:35.509,,-116,-194,1012,-280,0,-1540,-96,114,-433
18:37:35.528,,-117,-218,1018,-910,-420,-1120,-93,115,-436
18:37:35.547,,-115,-209,1042,350,-1120,-280,-99,109,-439
18:37:35.566,,-110,-183,1048,840,-770,0,-88,117,-429
18:37:35.585,,-114,-192,1020,-1330,350,-280,-91,108,-435
18:37:35.603,,-119,-219,993,-2590,770,-350,-91,114,-436
18:37:35.622,,-117,-216,999,-1470,-140,-140,-93,117,-441
18:37:35.641,,-110,-196,1026,-350,-770,-140,-94,109,-435
18:37:35.660,,-110,-203,1034,-1330,-560,0,-90,109,-432
18:37:35.679,,-117,-217,1008,-2590,350,350,-90,111,-436
18:37:35.697,,-118,-228,986,-2800,420,630,-93,109,-430
18:37:35.716,,-119,-227,992,-1540,-280,840,-87,105,-430
18:37:35.735,,-112,-213,1019,-350,-910,560,-90,109,-429
18:37:35.754,,-107,-206,1038,-140,-1190,280,-87,106,-432
18:37:35.772,,-107,-207,1046,140,-1190,210,-84,109,-426
18:37:35.791,,-111,-203,1037,210,-420,-140,-87,103,-435
18:37:35.810,,-116,-216,1023,-630,140,-630,-90,106,-432
18:37:35.829,,-120,-236,1025,-560,-140,-560,-85,120,-432
18:37:35.848,,-123,-221,1019,0,-280,-700,-90,112,-423
18:37:35.866,,-118,-211,1012,-210,-140,-1470,-90,112,-423
18:37:35.885,,-114,-209,1011,-420,-140,-1750,-84,109,-432
18:37:35.904,,-109,-196,1018,210,-420,-1610,-87,109,-429
18:37:35.923,,-111,-183,1013,0,-420,-1540,-88,117,-426
18:37:35.941,,-111,-204,1016,-1190,-420,-1330,-94,111,-426
18:37:35.960,,-113,-215,1022,-910,-700,-560,-85,109,-429
18:37:35.979,,-113,-202,1029,350,-770,-70,-85,114,-442
18:37:35.998,,-118,-193,1024,0,-140,-280,-96,117,-438
18:37:36.017,,-113,-213,1022,-840,-70,-280,-93,114,-439
18:37:36.035,,-114,-213,1016,-700,-280,-70,-93,112,-435
18:37:36.054,,-116,-207,1007,-840,-70,-350,-93,108,-436
18:37:36.073,,-120,-213,1000,-1750,-70,-700,-93,118,-438
18:37:36.092,,-119,-219,1010,-1400,-700,-490,-82,109,-430
18:37:36.111,,-110,-196,1041,210,-1400,-280,-88,115,-432
18:37:36.129,,-102,-182,1060,420,-1330,-420,-88,114,-438
18:37:36.148,,-105,-200,1049,-840,-350,-490,-96,114,-432
18:37:36.167,,-117,-221,1007,-2100,840,-630,-94,111,-438
18:37:36.186,,-119,-236,985,-1890,630,-840,-97,112,-442
18:37:36.204,,-115,-223,1003,-420,-280,-980,-90,112,-442
18:37:36.223,,-106,-201,1032,420,-840,-1050,-85,115,-435
18:37:36.242,,-104,-193,1037,-140,-910,-840,-85,105,-433
18:37:36.261,,-107,-198,1023,-1050,-350,-490,-97,109,-430
18:37:36.280,,-108,-203,1011,-1260,-140,-280,-99,118,-442
18:37:36.298,,-109,-211,1015,-910,-280,-140,-87,111,-436
18:37:36.317,,-120,-210,997,-1330,350,-420,-93,109,-427
18:37:36.336,,-118,-213,980,-1610,490,-1190,-93,118,-441
18:37:36.355,,-119,-216,981,-1400,-70,-1260,-90,120,-441
18:37:36.374,,-114,-210,1009,-700,-980,-490,-93,105,-433
18:37:36.392,,-113,-189,1024,0,-1260,0,-85,111,-441
18:37:36.411,,-115,-196,1020,-1120,-490,140,-94,111,-442
18:37:36.430,,-120,-220,1003,-2100,0,420,-93,112,-438
18:37:36.449,,-117,-225,1001,-1050,-420,420,-87,108,-436
18:37:36.468,,-115,-212,1004,-140,-280,-210,-79,117,-432
18:37:36.486,,-110,-217,1010,-560,-70,-700,-91,112,-438
18:37:36.505,,-114,-210,993,-420,210,-1120,-87,117,-438
18:37:36.524,,-108,-211,1003,-350,-350,-1120,-93,112,-441
18:37:36.543,,-106,-209,1022,210,-1120,-630,-84,114,-435
18:37:36.561,,-107,-202,1027,280,-840,-350,-93,118,-436
18:37:36.580,,-115,-215,992,-1540,140,-490,-90,111,-435
18:37:36.599,,-119,-237,974,-2170,280,-420,-90,108,-438
18:37:36.618,,-111,-231,1003,-140,-980,-70,-91,114,-442
18:37:36.637,,-106,-190,1028,1610,-1120,-280,-93,106,-442
18:37:36.655,,-109,-192,1014,-210,-70,-700,-93,108,-438
18:37:36.674,,-119,-230,994,-1960,-70,-140,-94,112,-435
18:37:36.693,,-123,-231,997,-700,-700,700,-94,105,-438
18:37:36.712,,-122,-202,1007,770,-980,280,-82,109,-432
18:37:36.731,,-115,-199,1033,1120,-1120,-280,-91,112,-435
18:37:36.749,,-121,-199,1024,560,-350,-420,-90,117,-432
18:37:36.768,,-124,-210,981,-1050,700,-1050,-91,109,-427
18:37:36.787,,-123,-234,953,-1750,770,-1400,-91,114,-433
18:37:36.806,,-114,-218,966,210,0,-1330,-91,117,-435
18:37:36.825,,-103,-186,985,1330,-770,-1400,-91,117,-435
18:37:36.843,,-98,-183,993,630,-910,-1330,-91,118,-436
18:37:36.862,,-99,-192,998,420,-980,-1050,-90,114,-427
18:37:36.881,,-105,-202,1000,700,-1330,-280,-91,100,-435
18:37:36.900,,-101,-197,1029,2030,-1960,280,-90,109,-436
18:37:36.918,,-103,-190,1058,2520,-1680,420,-91,109,-436
18:37:36.937,,-115,-205,1037,700,-420,210,-87,108,-426
18:37:36.956,,-125,-232,996,-1050,490,-210,-91,112,-418
18:37:36.975,,-126,-243,984,-1190,420,-420,-91,102,-433
18:37:36.994,,-125,-219,981,-350,70,-700,-94,111,-433
18:37:37.012,,-119,-193,988,-560,-280,-1260,-87,109,-421
18:37:37.031,,-111,-203,1007,-1540,-840,-1050,-97,114,-435
18:37:37.050,,-108,-195,1022,-770,-1330,-140,-87,111,-426
18:37:37.069,,-106,-193,1023,-840,-1120,490,-93,114,-432
18:37:37.088,,-104,-202,1018,-840,-630,490,-96,112,-430
18:37:37.106,,-107,-213,1015,-350,-280,350,-97,112,-430
18:37:37.125,,-114,-220,1013,-70,-420,210,-91,108,-435
18:37:37.144,,-113,-220,1018,770,-490,-350,-90,118,-436
18:37:37.163,,-113,-217,1018,770,-490,-350,-94,120,-430
18:37:37.182,,-115,-206,1001,770,140,-1190,-87,115,-432
18:37:37.200,,-112,-213,986,0,350,-1400,-91,102,-432
18:37:37.219,,-110,-197,986,840,-140,-1400,-93,112,-444
18:37:37.238,,-105,-176,996,1050,-560,-1470,-94,102,-438
18:37:37.257,,-103,-182,995,-210,-770,-1610,-93,114,-432
18:37:37.275,,-105,-203,1015,-700,-1260,-910,-85,118,-439
18:37:37.294,,-112,-201,1031,0,-1330,210,-96,115,-433
18:37:37.313,,-115,-200,1037,-420,-1050,630,-84,111,-430
18:37:37.332,,-117,-220,1043,-1050,-420,840,-90,112,-430
18:37:37.351,,-124,-228,1018,-1470,210,980,-96,109,-441
18:37:37.369,,-116,-221,1012,-770,-70,560,-93,109,-432
18:37:37.388,,-106,-201,1031,420,-350,-140,-91,115,-426
18:37:37.407,,-106,-190,1038,140,-280,-770,-91,115,-430
18:37:37.426,,-109,-200,1035,-980,-350,-980,-91,112,-424
18:37:37.445,,-113,-207,1026,-1190,-420,-910,-90,108,-423
18:37:37.463,,-112,-197,1031,-280,-560,-1050,-85,108,-423
18:37:37.482,,-109,-200,1047,-70,-770,-910,-90,114,-438
18:37:37.501,,-122,-210,1027,-1190,210,-630,-93,114,-436
18:37:37.520,,-125,-227,988,-2520,1050,-770,-90,112,-432
18:37:37.538,,-119,-229,977,-1960,420,-630,-90,111,-430
18:37:37.557,,-102,-204,1032,700,-1330,-70,-90,112,-435
18:37:37.576,,-101,-164,1064,1400,-1190,70,-94,112,-433
18:37:37.595,,-113,-194,1028,-2380,210,70,-100,114,-442
18:37:37.614,,-122,-247,995,-3850,560,630,-96,112,-438
18:37:37.632,,-117,-232,1001,-910,-210,700,-93,114,-442
18:37:37.651,,-108,-203,1026,560,-560,-70,-88,108,-430
18:37:37.670,,-109,-199,1037,-70,-280,-770,-93,111,-441
18:37:37.689,,-117,-199,1006,-910,280,-1190,-85,109,-435
18:37:37.708,,-117,-213,990,-1610,70,-1260,-85,114,-429
18:37:37.726,,-110,-228,1027,-560,-1190,-490,-90,112,-432
18:37:37.745,,-114,-198,1049,980,-1330,140,-96,117,-442
18:37:37.764,,-109,-189,1043,0,-630,-210,-94,111,-435
18:37:37.783,,-115,-224,1019,-1890,420,-350,-93,115,-430
18:37:37.802,,-123,-240,996,-1890,560,-140,-91,111,-435
18:37:37.820,,-114,-216,1007,0,-490,-280,-91,111,-435
18:37:37.839,,-103,-186,1045,1330,-910,-910,-97,120,-438
18:37:37.858,,-106,-183,1037,140,-140,-1260,-90,114,-423
18:37:37.877,,-112,-198,1009,-1050,140,-1260,-94,112,-424
18:37:37.896,,-116,-210,1011,-700,-420,-840,-88,108,-430
18:37:37.914,,-116,-200,1024,210,-560,-770,-88,112,-427
18:37:37.933,,-114,-199,1019,-280,-350,-910,-97,114,-433
18:37:37.952,,-114,-209,1027,-700,-420,-700,-96,108,-427
18:37:37.971,,-119,-209,1041,-700,-630,0,-87,106,-427
18:37:37.989,,-119,-209,1037,-1260,-350,280,-91,114,-432
18:37:38.008,,-117,-218,1013,-2100,560,70,-96,111,-435
18:37:38.027,,-117,-214,995,-1750,700,-70,-93,111,-436
18:37:38.046,,-115,-207,1005,-980,0,-280,-94,120,-438
18:37:38.065,,-112,-213,1027,-1120,-560,-420,-99,115,-436
18:37:38.083,,-110,-213,1031,-980,-630,-140,-96,106,-436
18:37:38.102,,-108,-204,1028,-280,-700,0,-94,111,-435
18:37:38.121,,-105,-206,1047,140,-770,210,-93,121,-439
18:37:38.140,,-110,-208,1047,280,-420,280,-87,111,-433
18:37:38.159,,-115,-214,1020,-560,70,-210,-85,106,-426
18:37:38.177,,-117,-221,1016,-490,-70,-770,-93,106,-435
18:37:38.196,,-122,-220,1018,-560,-140,-1050,-96,117,-442
18:37:38.215,,-124,-216,1005,-980,0,-1120,-94,118,-433
18:37:38.234,,-118,-201,1014,-350,-350,-1190,-90,109,-438
18:37:38.252,,-116,-203,1031,-770,-770,-560,-94,114,-436
18:37:38.271,,-118,-209,1030,-1260,-910,140,-96,120,-427
18:37:38.290,,-113,-205,1024,-840,-630,280,-90,112,-441
18:37:38.309,,-110,-201,1024,-210,-140,0,-88,117,-438
18:37:38.328,,-115,-214,1019,-560,210,-210,-87,109,-427
18:37:38.346,,-122,-229,1014,-980,70,-420,-84,115,-427
18:37:38.365,,-118,-219,1013,0,-350,-630,-87,109,-430
18:37:38.384,,-111,-200,1020,700,-560,-840,-91,114,-429
18:37:38.403,,-112,-206,1025,0,-350,-700,-85,111,-432
18:37:38.422,,-116,-210,1018,-560,-420,-350,-90,111,-433
18:37:38.440,,-112,-213,1023,-420,-1050,-210,-94,111,-439
18:37:38.459,,-111,-211,1044,140,-1330,-280,-93,117,-436
18:37:38.478,,-110,-202,1054,420,-840,-350,-90,114,-442
18:37:38.497,,-111,-202,1040,0,-280,-560,-94,117,-439
18:37:38.515,,-114,-215,1028,-770,-70,-560,-94,115,-432
18:37:38.534,,-119,-222,1034,-350,-280,-560,-88,109,-433
18:37:38.553,,-118,-212,1035,-140,-490,-560,-84,114,-433
18:37:38.572,,-116,-209,1038,-420,-490,-490,-94,108,-424
18:37:38.591,,-115,-206,1036,-490,-490,-350,-90,112,-432
18:37:38.609,,-114,-206,1036,-560,-490,-280,-91,114,-438
18:37:38.628,,-115,-211,1030,-980,-280,-280,-91,117,-438
18:37:38.647,,-116,-213,1022,-910,-210,-420,-88,117,-441
18:37:38.666,,-110,-200,1028,-140,-490,-630,-88,114,-435
18:37:38.685,,-111,-199,1035,0,-280,-700,-90,112,-441
18:37:38.703,,-117,-207,1024,-700,0,-700,-96,115,-436
18:37:38.722,,-124,-224,1012,-1260,-70,-210,-102,115,-442
18:37:38.741,,-122,-229,1020,-770,-490,70,-94,118,-442
18:37:38.760,,-117,-216,1030,-70,-700,140,-96,120,-435
18:37:38.778,,-111,-205,1040,280,-840,70,-97,112,-436
18:37:38.797,,-108,-196,1045,490,-700,-140,-88,109,-436
18:37:38.816,,-111,-198,1040,210,-350,-490,-88,109,-436
18:37:38.835,,-115,-218,1031,-700,-210,-770,-90,118,-436
18:37:38.854,,-120,-220,1024,-350,-210,-910,-88,108,-429
18:37:38.872,,-115,-209,1028,420,-420,-1260,-85,105,-430
18:37:38.891,,-111,-202,1038,490,-770,-1330,-94,106,-432
18:37:38.910,,-113,-204,1039,-350,-560,-1120,-93,118,-433
18:37:38.929,,-118,-219,1019,-1540,-350,-770,-87,117,-438
18:37:38.948,,-118,-219,1019,-1540,-350,-770,-97,109,-435
18:37:38.966,,-115,-219,1019,-1120,-560,-420,-97,109,-432
18:37:38.985,,-109,-204,1038,140,-840,-210,-90,115,-436
18:37:39.004,,-107,-190,1048,420,-700,-210,-94,114,-445
18:37:39.023,,-113,-199,1045,-560,-420,-280,-79,112,-435
18:37:39.041,,-122,-228,1036,-1680,-350,0,-94,118,-442
18:37:39.060,,-127,-238,1029,-1470,-350,350,-91,118,-436
18:37:39.079,,-125,-228,1027,-840,-210,420,-90,117,-429
18:37:39.098,,-123,-211,1021,-490,-70,-70,-97,114,-433
18:37:39.117,,-118,-212,1023,-910,-140,-490,-93,115,-439
18:37:39.135,,-117,-226,1023,-1470,-490,-350,-84,108,-433
18:37:39.154,,-114,-214,1021,-700,-630,-350,-90,111,-435
18:37:39.173,,-109,-200,1032,210,-700,-630,-91,120,-436
18:37:39.192,,-111,-206,1035,70,-420,-700,-99,114,-435
18:37:39.211,,-112,-209,1022,70,-140,-910,-91,117,-429
18:37:39.229,,-112,-207,1011,280,-210,-1330,-90,111,-426
18:37:39.248,,-113,-221,1026,140,-770,-1260,-84,112,-432
18:37:39.267,,-116,-215,1039,560,-840,-840,-85,123,-426
18:37:39.286,,-117,-200,1018,280,-280,-980,-90,109,-421
18:37:39.304,,-116,-207,1010,-490,-70,-1050,-91,112,-427
18:37:39.323,,-117,-216,1018,-490,-560,-560,-87,108,-435
18:37:39.342,,-114,-202,1020,0,-980,-420,-91,115,-436
18:37:39.361,,-110,-195,1025,-280,-980,-630,-96,106,-430
18:37:39.380,,-110,-207,1037,-490,-1050,-350,-91,111,-438
18:37:39.398,,-120,-210,1025,-700,-490,-140,-94,115,-441
18:37:39.417,,-125,-227,1014,-1680,-210,-70,-91,111,-436
18:37:39.436,,-122,-235,1018,-1120,-700,140,-88,108,-436
18:37:39.455,,-113,-206,1030,560,-770,-70,-88,112,-436
18:37:39.474,,-108,-192,1039,490,-560,-770,-88,112,-439
18:37:39.492,,-112,-208,1042,-420,-420,-630,-85,112,-429
18:37:39.511,,-116,-212,1032,-490,-420,-350,-88,112,-439
18:37:39.530,,-114,-214,1026,-350,-420,-700,-90,115,-436
18:37:39.549,,-107,-217,1029,0,-280,-910,-87,115,-441
18:37:39.568,,-106,-200,1024,840,70,-1120,-99,106,-435
18:37:39.586,,-107,-184,1003,350,210,-1750,-97,106,-435
18:37:39.605,,-106,-199,1012,-210,-560,-2030,-91,115,-445
18:37:39.624,,-103,-206,1038,280,-1330,-1400,-103,106,-441
18:37:39.643,,-107,-197,1032,0,-840,-700,-91,108,-433
18:37:39.661,,-113,-203,1013,-910,-140,-420,-100,112,-436
18:37:39.680,,-114,-209,1019,-630,-350,210,-88,112,-432
18:37:39.699,,-117,-211,1037,-630,-840,840,-84,109,-430
18:37:39.718,,-121,-215,1034,-1400,-420,980,-87,111,-432
18:37:39.737,,-126,-219,1004,-2240,490,770,-94,112,-432
18:37:39.755,,-128,-228,993,-2660,420,700,-90,115,-441
18:37:39.774,,-124,-225,1008,-1400,-210,630,-99,115,-438
18:37:39.793,,-117,-207,1020,-560,-490,350,-99,115,-438
18:37:39.812,,-112,-203,1008,-980,-350,0,-94,117,-429
18:37:39.831,,-111,-221,1008,-1400,-350,0,-88,117,-433
18:37:39.849,,-112,-217,1012,-210,-560,140,-94,112,-436
18:37:39.868,,-109,-200,1012,840,-490,-350,-90,105,-432
18:37:39.887,,-106,-206,1019,700,-350,-910,-94,114,-421
18:37:39.906,,-114,-218,1007,420,-140,-1050,-93,114,-444
18:37:39.924,,-110,-207,997,1050,-350,-1260,-93,118,-427
18:37:39.943,,-106,-192,1014,1750,-910,-1400,-87,109,-438
18:37:39.962,,-107,-201,1043,1400,-1470,-840,-97,121,-442
18:37:39.981,,-112,-197,1043,700,-1330,-280,-84,108,-433
18:37:40.000,,-112,-201,1029,0,-840,-490,-97,114,-427
18:37:40.018,,-110,-206,1035,-70,-700,-560,-91,111,-426
18:37:40.037,,-117,-206,1033,-490,-140,-420,-79,123,-435
18:37:40.056,,-121,-206,1006,-1400,420,-770,-87,108,-424
18:37:40.075,,-118,-206,994,-1820,420,-1330,-90,106,-432
18:37:40.094,,-116,-210,996,-1750,210,-1330,-93,109,-429
18:37:40.112,,-113,-209,1001,-1610,-70,-770,-94,120,-432
18:37:40.131,,-110,-193,1004,-910,-350,-280,-88,109,-433
18:37:40.150,,-104,-191,1017,-700,-770,210,-90,105,-427
18:37:40.169,,-107,-198,1031,-630,-910,700,-88,106,-432
18:37:40.187,,-110,-203,1038,-210,-910,910,-93,111,-432
18:37:40.206,,-112,-203,1042,280,-770,560,-87,108,-420
18:37:40.225,,-118,-218,1036,-210,-350,280,-87,112,-426
18:37:40.244,,-126,-233,1011,-980,280,-70,-91,127,-441
18:37:40.263,,-126,-227,990,-910,700,-630,-91,117,-435
18:37:40.281,,-122,-214,984,-770,490,-1120,-97,105,-430
18:37:40.300,,-113,-211,996,-980,-490,-1050,-91,117,-438
18:37:40.319,,-107,-192,1009,-350,-910,-910,-91,120,-439
18:37:40.338,,-101,-186,1016,-840,-910,-630,-87,112,-436
18:37:40.357,,-105,-205,1016,-1540,-700,-140,-93,111,-439
18:37:40.375,,-112,-221,1021,-1330,-560,490,-97,112,-436
18:37:40.394,,-115,-223,1020,-700,-490,700,-91,109,-436
18:37:40.413,,-113,-215,1023,210,-420,420,-91,115,-439
18:37:40.432,,-114,-208,1024,490,-140,-140,-91,117,-436
18:37:40.451,,-120,-211,1005,-210,210,-560,-97,117,-439
18:37:40.469,,-118,-209,998,-350,-70,-840,-90,120,-435
18:37:40.488,,-115,-201,1006,70,-630,-1190,-91,109,-430
18:37:40.507,,-110,-196,1014,-210,-770,-1330,-90,117,-435
18:37:40.526,,-122,-201,1015,-700,-630,-1190,-94,112,-433
18:37:40.544,,-114,-202,1009,-490,-910,-770,-91,115,-433
18:37:40.563,,-114,-197,1025,-490,-490,-700,-97,114,-444
18:37:40.582,,-116,-223,1031,-840,-420,-350,-88,112,-429
18:37:40.601,,-123,-217,1007,-560,-420,420,-94,108,-445
18:37:40.620,,-113,-211,1024,-280,-280,140,-93,109,-427
18:37:40.638,,-113,-211,1026,-490,-70,0,-87,103,-429
18:37:40.657,,-116,-208,1009,-280,0,70,-100,117,-436
18:37:40.676,,-111,-210,1005,-700,-140,-490,-91,109,-429
18:37:40.695,,-112,-220,1020,-1050,-560,-490,-85,117,-432
18:37:40.714,,-112,-205,1024,-210,-840,-210,-91,111,-432
18:37:40.732,,-112,-205,1024,-700,-350,-630,-91,115,-424
18:37:40.751,,-117,-203,1016,-700,-350,-630,-91,123,-436
18:37:40.770,,-113,-217,1030,-840,-560,-700,-91,108,-433
18:37:40.789,,-117,-210,1030,140,-840,-140,-91,108,-433
18:37:40.808,,-116,-211,1019,-350,-280,-490,-88,115,-435
18:37:40.826,,-118,-221,1009,-770,0,-700,-91,120,-447
18:37:40.845,,-115,-213,1016,350,-560,-350,-96,121,-432
18:37:40.864,,-114,-204,1029,630,-910,-140,-94,115,-430
18:37:40.883,,-115,-206,1036,-70,-700,-280,-90,108,-430
18:37:40.901,,-119,-212,1026,-420,-560,-70,-85,108,-429
18:37:40.920,,-117,-217,1018,-490,-560,0,-96,112,-432
18:37:40.939,,-117,-212,1012,-210,-140,-560,-93,100,-430
18:37:40.958,,-114,-203,1007,140,-70,-1260,-87,102,-429
18:37:40.977,,-108,-193,1015,420,-490,-1540,-90,117,-427
18:37:40.995,,-109,-195,1023,210,-700,-1470,-96,114,-424
18:37:41.014,,-111,-199,1021,-210,-700,-1190,-96,109,-430
18:37:41.033,,-112,-200,1021,-140,-700,-630,-85,111,-427
18:37:41.052,,-116,-208,1013,-490,-280,-350,-85,114,-436
18:37:41.071,,-114,-215,1014,-560,-210,-280,-94,114,-433
18:37:41.089,,-110,-203,1020,70,-560,-210,-91,115,-435
18:37:41.108,,-109,-197,1030,70,-770,-280,-90,109,-423
18:37:41.127,,-107,-199,1041,-210,-630,-280,-93,109,-430
18:37:41.146,,-115,-201,1024,-840,-70,-210,-88,117,-424
18:37:41.164,,-117,-214,1003,-1470,210,-350,-93,111,-424
18:37:41.183,,-119,-220,993,-1400,210,-560,-87,106,-430
18:37:41.202,,-115,-213,1002,-840,-350,-630,-94,112,-426
18:37:41.221,,-109,-193,1017,70,-910,-700,-93,106,-424
18:37:41.240,,-106,-194,1035,-210,-1120,-490,-88,114,-426
18:37:41.258,,-110,-205,1042,-770,-980,140,-87,105,-432
18:37:41.277,,-117,-214,1027,-1120,-350,490,-88,109,-433
18:37:41.296,,-119,-225,1016,-1120,0,420,-102,114,-430
18:37:41.315,,-119,-223,1021,-490,-140,210,-93,117,-433
18:37:41.334,,-120,-211,1018,-210,0,-140,-87,115,-424
18:37:41.352,,-121,-208,1006,-980,210,-770,-87,105,-438
18:37:41.371,,-118,-216,1008,-980,-280,-770,-97,108,-438
18:37:41.390,,-113,-199,1014,140,-770,-630,-88,115,-444
18:37:41.409,,-106,-188,1022,420,-700,-980,-85,117,-436
18:37:41.427,,-107,-196,1025,-140,-630,-1050,-96,114,-435
18:37:41.446,,-110,-209,1028,-70,-840,-560,-96,109,-442
18:37:41.465,,-113,-208,1024,210,-700,-630,-100,117,-435
18:37:41.484,,-110,-213,1032,280,-560,-630,-88,115,-442
18:37:41.503,,-116,-212,1027,70,-140,-630,-97,114,-438
18:37:41.521,,-117,-209,1012,-350,0,-700,-97,114,-439
18:37:41.540,,-115,-201,1004,-420,70,-1050,-88,114,-439
18:37:41.559,,-116,-212,1006,-1400,-70,-910,-96,114,-433
18:37:41.578,,-119,-208,1009,-1190,-560,-420,-90,106,-429
18:37:41.597,,-117,-196,1021,-700,-840,-280,-88,111,-423
18:37:41.615,,-112,-203,1032,-840,-770,-140,-88,114,-429
18:37:41.634,,-114,-215,1031,-910,-560,280,-94,112,-427
18:37:41.653,,-115,-214,1020,-560,-350,280,-91,111,-429
18:37:41.672,,-112,-218,1020,-560,-490,70,-99,111,-424
18:37:41.691,,-115,-222,1023,-490,-420,-70,-88,109,-430
18:37:41.709,,-120,-217,1016,-420,-280,-350,-88,114,-429
18:37:41.728,,-115,-206,1015,-140,-560,-700,-93,115,-433
18:37:41.747,,-113,-205,1025,0,-770,-840,-93,117,-426
18:37:41.766,,-113,-208,1021,-420,-560,-770,-85,106,-427
18:37:41.784,,-115,-206,1007,-630,-140,-840,-85,106,-427
18:37:41.803,,-112,-206,1014,-350,-490,-840,-93,111,-438
18:37:41.822,,-114,-208,1040,350,-980,-420,-96,111,-441
18:37:41.841,,-117,-203,1041,210,-770,-420,-96,117,-432
18:37:41.860,,-113,-210,1029,-350,-280,-560,-96,114,-435
18:37:41.878,,-114,-215,1018,-350,-70,-560,-91,108,-435
18:37:41.897,,-113,-207,1022,210,-280,-630,-90,109,-438
18:37:41.916,,-113,-197,1031,420,-560,-840,-100,115,-444
18:37:41.935,,-113,-198,1033,-210,-560,-980,-94,118,-435
18:37:41.954,,-115,-212,1026,-980,-210,-980,-90,106,-439
18:37:41.972,,-120,-221,1004,-1540,70,-840,-97,118,-435
18:37:41.991,,-118,-213,1008,-490,-280,-560,-96,102,-429
18:37:42.010,,-108,-190,1036,840,-1050,-490,-99,106,-435
18:37:42.029,,-102,-185,1058,770,-1190,-490,-93,111,-433
18:37:42.048,,-113,-200,1042,-700,-350,-280,-96,112,-432
18:37:42.066,,-124,-224,1010,-1750,210,-210,-94,108,-433
18:37:42.085,,-123,-229,1016,-910,-350,0,-91,118,-441
18:37:42.104,,-115,-211,1045,560,-840,70,-90,115,-439
18:37:42.123,,-113,-195,1035,0,-420,-490,-99,115,-432
18:37:42.141,,-109,-205,1022,-1260,-280,-700,-81,115,-435
18:37:42.160,,-110,-211,1032,-980,-840,-420,-94,111,-435
18:37:42.179,,-108,-200,1056,280,-1190,-350,-100,118,-436
18:37:42.198,,-109,-193,1051,-350,-490,-770,-100,108,-432
18:37:42.217,,-112,-217,1032,-1400,210,-980,-88,103,-429
18:37:42.235,,-118,-226,1018,-1190,350,-910,-94,117,-436
18:37:42.254,,-119,-218,1021,-630,0,-840,-91,120,-430
18:37:42.273,,-115,-206,1028,-280,-280,-840,-94,115,-436
18:37:42.292,,-113,-195,1042,-210,-490,-630,-96,114,-435
18:37:42.311,,-116,-198,1043,-560,-700,-140,-94,115,-433
18:37:42.329,,-115,-210,1048,-910,-770,210,-90,106,-435
18:37:42.348,,-115,-212,1040,-560,-350,70,-94,109,-438
18:37:42.367,,-121,-211,1018,-1050,210,-490,-94,114,-439
18:37:42.386,,-120,-223,1016,-1330,0,-840,-88,115,-442
18:37:42.405,,-118,-215,1026,-560,-560,-840,-93,111,-432
18:37:42.423,,-112,-196,1034,-140,-630,-980,-99,111,-430
18:37:42.442,,-110,-196,1032,-770,-350,-980,-88,109,-421
18:37:42.461,,-120,-211,1005,-2030,490,-700,-88,112,-427
18:37:42.480,,-123,-233,991,-2590,420,-350,-87,106,-430
18:37:42.498,,-117,-222,1007,-910,-630,0,-91,106,-436
18:37:42.517,,-103,-191,1050,1120,-1260,0,-88,120,-438
18:37:42.536,,-103,-191,1050,1120,-1260,0,-87,115,-441
18:37:42.555,,-104,-181,1050,420,-420,-280,-93,106,-430
18:37:42.574,,-114,-215,1015,-1820,420,-280,-90,111,-424
18:37:42.592,,-121,-234,1002,-1470,0,-70,-99,115,-436
18:37:42.611,,-112,-217,1027,560,-910,-350,-90,114,-441
18:37:42.630,,-107,-193,1042,1120,-770,-1120,-94,108,-432
18:37:42.649,,-114,-194,1027,-210,-140,-1540,-97,114,-433
18:37:42.668,,-121,-217,1007,-1540,-70,-1330,-93,114,-439
18:37:42.686,,-123,-228,1016,-1190,-700,-840,-94,109,-432
18:37:42.705,,-116,-208,1038,280,-1120,-350,-97,108,-438
18:37:42.724,,-115,-194,1036,-280,-490,-350,-90,117,-439
18:37:42.743,,-118,-211,1018,-1540,70,-350,-90,112,-433
18:37:42.762,,-122,-226,1010,-1610,210,-70,-90,112,-433
18:37:42.780,,-120,-224,1010,-980,-210,140,-88,103,-433
18:37:42.799,,-107,-208,1039,210,-840,70,-94,112,-427
18:37:42.818,,-108,-192,1051,630,-700,0,-91,114,-429
18:37:42.837,,-118,-206,1022,-840,140,-280,-91,112,-433
18:37:42.855,,-122,-223,1000,-1610,420,-560,-87,103,-433
18:37:42.874,,-122,-231,998,-840,-140,-560,-93,109,-430
18:37:42.893,,-113,-210,1021,490,-980,-770,-88,115,-438
18:37:42.912,,-105,-191,1045,1260,-1330,-840,-91,112,-441
18:37:42.931,,-106,-181,1034,420,-630,-770,-87,114,-438
18:37:42.949,,-113,-204,1014,-980,70,-700,-88,111,-436
18:37:42.968,,-123,-233,993,-1750,0,-210,-88,112,-435
18:37:42.987,,-117,-233,1017,-490,-1120,70,-90,109,-424
18:37:43.006,,-111,-205,1049,1190,-1400,70,-88,103,-432
18:37:43.025,,-113,-194,1037,210,-350,-280,-90,111,-432
18:37:43.043,,-116,-211,1005,-1260,420,-490,-91,115,-427
18:37:43.062,,-118,-217,995,-1050,70,-350,-91,105,-430
18:37:43.081,,-110,-209,1032,280,-1260,-210,-91,109,-426
18:37:43.100,,-110,-192,1059,840,-1400,-280,-90,106,-439
18:37:43.157,,-122,-221,998,-770,0,-490,-82,118,-439
18:37:43.157,,-122,-221,998,-770,0,-490,-82,118,-439
18:37:43.158,,-122,-221,998,-770,0,-490,-82,118,-439
18:37:43.175,,-111,-200,1024,910,-910,-630,-99,115,-438
18:37:43.194,,-105,-182,1034,700,-910,-980,-93,105,-432
18:37:43.212,,-107,-192,1026,-280,-420,-1050,-91,112,-438
18:37:43.231,,-115,-208,1010,-1050,70,-700,-97,120,-435
18:37:43.250,,-119,-215,1002,-980,-140,-280,-94,115,-432
18:37:43.269,,-112,-200,1018,280,-700,-350,-90,118,-435
18:37:43.288,,-106,-193,1047,630,-1120,-280,-88,118,-441
18:37:43.306,,-110,-205,1050,-490,-770,70,-87,109,-430
18:37:43.325,,-120,-218,1023,-1470,0,280,-93,109,-436
18:37:43.344,,-118,-225,1007,-1260,0,210,-94,115,-436
18:37:43.363,,-113,-209,1022,-280,-350,-70,-88,115,-444
18:37:43.382,,-113,-196,1028,-280,-280,-560,-88,117,-439
18:37:43.400,,-114,-202,1016,-1260,-140,-980,-99,106,-439
18:37:43.419,,-113,-213,1020,-1330,-420,-840,-93,115,-439
18:37:43.438,,-112,-217,1036,-700,-980,-70,-96,105,-435
18:37:43.457,,-113,-202,1039,70,-630,70,-91,111,-435
18:37:43.475,,-114,-198,1022,-350,70,-420,-96,109,-438
18:37:43.494,,-108,-207,1019,-280,-420,-560,-85,106,-438
18:37:43.513,,-110,-201,1039,770,-770,-560,-96,117,-427
18:37:43.532,,-113,-200,1036,0,-280,-840,-93,106,-424
18:37:43.551,,-118,-214,1005,-1330,350,-980,-88,103,-423
18:37:43.569,,-118,-215,991,-1120,280,-770,-84,102,-436
18:37:43.588,,-111,-195,1006,0,-490,-770,-91,111,-430
18:37:43.607,,-109,-185,1023,-210,-560,-840,-97,105,-424
18:37:43.626,,-112,-199,1012,-1540,-210,-700,-91,112,-433
18:37:43.645,,-112,-210,1001,-1820,-210,-210,-91,120,-436
18:37:43.663,,-113,-213,1005,-1330,-350,210,-93,109,-442
18:37:43.682,,-114,-204,1016,-700,-210,280,-96,114,-444
18:37:43.701,,-115,-202,1005,-910,140,70,-87,112,-439
18:37:43.720,,-122,-216,985,-1820,350,-140,-96,115,-433
18:37:43.739,,-125,-227,988,-1750,-70,-70,-96,115,-433
18:37:43.757,,-122,-219,1000,-770,-560,0,-85,115,-439
18:37:43.776,,-117,-208,1007,-350,-700,0,-99,114,-436
18:37:43.795,,-115,-199,1008,-280,-490,-210,-90,112,-439
18:37:43.814,,-114,-210,1009,-490,-560,-210,-91,115,-438
18:37:43.832,,-115,-218,1013,-350,-980,70,-94,115,-435
18:37:43.851,,-113,-208,1022,630,-1050,-70,-96,109,-435
18:37:43.870,,-112,-208,1025,420,-560,-560,-88,108,-435
18:37:43.889,,-118,-223,1009,-490,-70,-630,-88,111,-444
18:37:43.908,,-118,-220,1002,-70,-350,-700,-90,112,-438
18:37:43.926,,-110,-205,1017,910,-980,-910,-88,118,-427
18:37:43.945,,-111,-203,1022,350,-700,-1050,-94,109,-430
18:37:43.964,,-114,-208,1011,-490,-420,-1050,-87,117,-427
18:37:43.983,,-113,-208,1008,-350,-700,-840,-88,112,-420
18:37:44.002,,-105,-192,1034,1050,-1330,-700,-96,109,-429
18:37:44.020,,-104,-176,1055,1540,-1260,-840,-87,118,-424
18:37:44.039,,-113,-193,1047,210,-560,-770,-85,112,-432
18:37:44.058,,-125,-218,1016,-1120,70,-630,-85,111,-435
18:37:44.077,,-126,-232,1001,-1330,210,-490,-93,112,-423
18:37:44.095,,-122,-213,1001,-350,140,-560,-87,109,-433
18:37:44.114,,-116,-197,1012,0,-420,-700,-97,106,-438
18:37:44.133,,-108,-191,1032,-210,-1120,-490,-94,115,-439
18:37:44.152,,-109,-186,1046,-210,-1260,-210,-93,112,-441
18:37:44.171,,-104,-205,1058,-560,-1330,280,-87,109,-441
18:37:44.189,,-108,-208,1053,-350,-840,630,-88,115,-436
18:37:44.208,,-110,-205,1042,-70,70,70,-96,111,-423
18:37:44.227,,-121,-218,1012,-840,910,-700,-90,115,-436
18:37:44.246,,-128,-229,988,-1680,980,-1120,-97,117,-438
18:37:44.265,,-120,-228,1004,-980,-350,-980,-93,111,-424
18:37:44.283,,-109,-192,1041,630,-1540,-630,-94,117,-441
18:37:44.302,,-104,-180,1061,0,-1260,-280,-94,112,-447
18:37:44.321,,-104,-180,1061,-1820,-210,280,-91,105,-429
18:37:44.340,,-114,-203,1041,-1820,-210,280,-93,111,-433
18:37:44.359,,-124,-228,1003,-2520,350,770,-90,105,-427
18:37:44.377,,-116,-228,1010,-1050,-420,490,-90,115,-432
18:37:44.396,,-103,-204,1055,1330,-1330,-70,-84,114,-421
18:37:44.415,,-109,-194,1062,840,-630,-490,-96,106,-432
18:37:44.434,,-122,-208,1018,-1120,560,-840,-91,117,-442
18:37:44.452,,-119,-224,997,-1400,280,-910,-90,117,-438
18:37:44.471,,-111,-215,1025,280,-910,-700,-88,112,-432
18:37:44.490,,-108,-181,1054,1540,-1330,-840,-96,120,-433
18:37:44.509,,-112,-184,1044,-70,-630,-1190,-84,109,-426
18:37:44.528,,-118,-219,1025,-2030,-140,-980,-90,111,-433
18:37:44.546,,-121,-238,1020,-1680,0,-350,-93,112,-426
18:37:44.565,,-120,-210,1015,-210,210,-280,-90,105,-438
18:37:44.584,,-112,-192,1021,70,140,-630,-99,117,-438
18:37:44.603,,-112,-194,1030,-490,-280,-420,-97,120,-435
18:37:44.622,,-121,-218,1029,-1680,-630,280,-90,105,-436
18:37:44.640,,-122,-220,1036,-1190,-980,630,-88,111,-433
18:37:44.659,,-119,-210,1042,-490,-630,490,-91,123,-438
18:37:44.678,,-121,-218,1025,-1330,280,140,-93,114,-435
18:37:44.697,,-119,-223,1003,-1470,420,-210,-94,109,-430
18:37:44.716,,-118,-216,995,-910,140,-700,-94,109,-430
18:37:44.734,,-114,-212,1009,-700,-560,-1120,-93,109,-433
18:37:44.753,,-109,-204,1027,0,-980,-980,-84,109,-426
18:37:44.772,,-111,-193,1023,-140,-700,-770,-94,111,-435
18:37:44.791,,-113,-202,1011,-630,-280,-560,-91,105,-423
18:37:44.809,,-118,-217,1000,-770,70,-490,-100,118,-427
18:37:44.828,,-117,-225,993,-560,-70,-490,-94,117,-432
18:37:44.847,,-116,-209,993,210,-420,-700,-99,109,-444
18:37:44.866,,-114,-204,1014,420,-770,-700,-93,111,-436
18:37:44.885,,-116,-207,1021,140,-980,-350,-88,115,-430
18:37:44.903,,-112,-202,1015,210,-770,-140,-90,114,-433
18:37:44.922,,-113,-199,1003,70,-350,-420,-96,114,-430
18:37:44.941,,-119,-210,993,-210,-70,-700,-96,120,-432
18:37:44.960,,-120,-205,989,350,-280,-1120,-96,117,-429
18:37:44.979,,-108,-192,1011,1120,-1120,-1610,-94,117,-430
18:37:44.997,,-106,-185,1035,1470,-1400,-1610,-93,117,-432
18:37:45.016,,-112,-192,1034,560,-980,-1120,-96,111,-435
18:37:45.035,,-112,-205,1020,-210,-490,-630,-84,118,-438
18:37:45.054,,-112,-198,1009,140,0,-560,-91,115,-433
18:37:45.073,,-112,-202,1006,-210,0,-700,-97,112,-438
18:37:45.091,,-111,-200,1015,-70,-630,-840,-85,114,-430
18:37:45.110,,-108,-189,1029,0,-910,-910,-88,114,-430
18:37:45.129,,-108,-189,1026,-630,-630,-980,-97,114,-441
18:37:45.148,,-106,-199,1024,-1120,-420,-630,-93,112,-435
18:37:45.166,,-104,-196,1028,-560,-420,-280,-90,121,-424
18:37:45.185,,-103,-189,1028,-560,-560,-210,-93,115,-430
18:37:45.204,,-106,-195,1033,-980,-490,-350,-84,118,-436
18:37:45.223,,-115,-211,1027,-1820,-280,-210,-94,112,-430
18:37:45.242,,-122,-214,1011,-1820,0,-210,-88,114,-433
18:37:45.260,,-119,-209,1013,-1540,70,-420,-90,105,-432
18:37:45.279,,-117,-210,1018,-1610,-70,-280,-90,109,-436
18:37:45.298,,-114,-208,1012,-1610,-140,0,-96,114,-433
18:37:45.317,,-112,-210,1004,-2100,210,140,-90,118,-430
18:37:45.336,,-116,-218,1005,-2240,140,490,-99,120,-435
18:37:45.354,,-116,-204,1011,-1050,-280,560,-99,102,-432
18:37:45.373,,-106,-197,1029,-280,-770,140,-87,108,-432
18:37:45.392,,-107,-203,1033,-420,-560,-210,-93,109,-430
18:37:45.411,,-117,-211,1004,-980,350,-560,-87,112,-432
18:37:45.430,,-120,-219,980,-1260,420,-1120,-88,106,-438
18:37:45.448,,-117,-211,996,0,-420,-1400,-90,114,-435
18:37:45.467,,-115,-195,1024,700,-1050,-1400,-90,118,-432
18:37:45.486,,-109,-188,1037,140,-1260,-1120,-88,108,-435
18:37:45.505,,-111,-201,1035,-840,-770,-770,-97,115,-435
18:37:45.523,,-116,-214,1022,-1190,-70,-280,-93,112,-439
18:37:45.542,,-119,-217,1012,-1190,210,-70,-91,109,-436
18:37:45.561,,-120,-216,1002,-1260,350,-280,-94,112,-429
18:37:45.580,,-114,-211,1004,-1260,-70,-700,-100,112,-436
18:37:45.599,,-115,-216,1015,-1260,-630,-630,-93,117,-432
18:37:45.617,,-117,-215,1022,-1330,-700,-140,-82,115,-435
18:37:45.636,,-114,-198,1015,-770,-350,-140,-90,114,-430
18:37:45.655,,-109,-197,1010,-700,-140,-420,-91,106,-438
18:37:45.674,,-110,-208,1016,-630,-350,-490,-87,123,-426
18:37:45.693,,-112,-208,1027,0,-700,-560,-87,123,-426
18:37:45.711,,-115,-209,1032,-70,-770,-700,-93,115,-424
18:37:45.730,,-118,-225,1038,-630,-560,-490,-94,114,-427
18:37:45.749,,-121,-228,1031,-630,-140,0,-90,112,-438
18:37:45.768,,-121,-218,1019,-560,70,0,-99,115,-438
18:37:45.786,,-117,-217,1012,-840,70,-210,-96,106,-433
18:37:45.805,,-116,-211,1004,-700,-70,-560,-93,117,-442
18:37:45.824,,-112,-197,1004,-350,-280,-980,-99,115,-436
18:37:45.843,,-108,-197,1016,-70,-560,-1190,-91,114,-433
18:37:45.862,,-113,-200,1021,-350,-490,-840,-96,111,-438
18:37:45.880,,-115,-217,1012,-840,-420,-280,-93,112,-435
18:37:45.899,,-117,-221,1004,-700,-350,140,-81,112,-429
18:37:45.918,,-117,-212,1014,140,-700,350,-87,111,-429
18:37:45.937,,-114,-203,1036,770,-1260,490,-93,108,-430
18:37:45.956,,-114,-200,1045,700,-1120,210,-88,109,-435
18:37:45.974,,-119,-215,1031,-490,-420,-140,-84,106,-433
18:37:45.993,,-123,-230,1011,-1050,0,-210,-94,108,-435
18:37:46.012,,-124,-219,999,-210,70,-490,-90,118,-432
18:37:46.031,,-119,-205,999,-70,70,-1050,-91,114,-438
18:37:46.049,,-115,-209,1012,-140,-490,-1120,-93,115,-436
18:37:46.068,,-115,-200,1019,0,-910,-630,-94,111,-435
18:37:46.087,,-110,-192,1027,420,-1120,-420,-91,111,-439
18:37:46.106,,-106,-192,1036,210,-910,-210,-88,111,-424
18:37:46.125,,-106,-200,1036,210,-910,-210,-96,106,-432
18:37:46.143,,-108,-210,1041,560,-700,0,-96,105,-432
18:37:46.162,,-109,-204,1034,840,-350,-140,-87,111,-430
18:37:46.181,,-109,-207,1026,350,-210,-630,-99,108,-426
18:37:46.200,,-113,-222,1024,-280,0,-700,-88,103,-432
18:37:46.219,,-122,-212,1003,-420,70,-700,-90,115,-430
18:37:46.237,,-119,-199,997,-420,-490,-980,-91,118,-426
18:37:46.256,,-111,-191,1022,140,-1120,-1120,-93,111,-424
18:37:46.275,,-111,-183,1034,0,-1120,-840,-91,105,-423
18:37:46.294,,-115,-194,1020,-1120,-700,-490,-97,115,-433
18:37:46.313,,-119,-212,1016,-1470,-420,-70,-94,118,-429
18:37:46.331,,-115,-215,1031,-840,-700,560,-87,106,-426
18:37:46.350,,-113,-207,1038,140,-700,910,-90,109,-430
18:37:46.369,,-114,-201,1033,-210,-280,560,-96,114,-442
18:37:46.388,,-119,-219,1020,-1120,70,280,-88,111,-426
18:37:46.406,,-120,-229,1013,-1260,-210,210,-93,117,-436
18:37:46.425,,-111,-207,1030,350,-910,-140,-94,117,-432
18:37:46.444,,-107,-186,1042,700,-700,-770,-84,114,-441
18:37:46.463,,-116,-206,1018,-1190,140,-1120,-93,108,-438
18:37:46.482,,-121,-233,999,-2030,140,-840,-97,114,-429
18:37:46.500,,-119,-218,1004,-490,-490,-560,-93,108,-435
18:37:46.519,,-111,-198,1036,630,-980,-630,-102,111,-435
18:37:46.538,,-111,-201,1045,0,-770,-280,-94,108,-436
18:37:46.557,,-115,-204,1022,-560,-210,0,-85,106,-436
18:37:46.576,,-115,-208,1015,-420,-210,-140,-88,112,-438
18:37:46.594,,-111,-215,1040,140,-700,-70,-99,112,-436
18:37:46.613,,-111,-200,1044,700,-490,-140,-87,114,-429
18:37:46.632,,-116,-197,1011,-630,350,-840,-99,106,-438
18:37:46.651,,-117,-223,998,-1750,210,-980,-93,117,-442
18:37:46.670,,-124,-220,999,-1050,-280,-700,-88,118,-430
18:37:46.688,,-115,-198,1015,-140,-910,-840,-88,118,-430
18:37:46.707,,-108,-184,1029,210,-1050,-1050,-102,108,-432
18:37:46.726,,-108,-188,1033,-140,-630,-910,-94,112,-429
18:37:46.745,,-110,-200,1023,-630,-280,-560,-96,112,-429
18:37:46.764,,-113,-213,1016,-770,-210,-210,-91,105,-433
18:37:46.782,,-116,-213,1024,-210,-280,0,-94,109,-426
18:37:46.801,,-119,-209,1023,-350,-70,70,-84,108,-426
18:37:46.820,,-121,-217,1006,-1330,210,0,-87,111,-430
18:37:46.839,,-114,-214,1002,-1120,-210,-140,-87,106,-427
18:37:46.857,,-107,-197,1023,280,-1050,-280,-91,106,-436
18:37:46.876,,-108,-187,1035,-70,-770,-560,-88,115,-430
18:37:46.895,,-111,-203,1025,-1260,-350,-700,-81,111,-429
18:37:46.914,,-114,-210,1013,-1120,-350,-560,-94,112,-436
18:37:46.933,,-115,-212,1027,-420,-630,-420,-100,117,-436
18:37:46.951,,-119,-213,1040,-280,-630,-280,-93,114,-435
18:37:46.970,,-122,-211,1024,-770,-140,-140,-87,109,-432
18:37:46.989,,-123,-217,1007,-1330,140,-70,-100,102,-432
18:37:47.008,,-122,-226,1002,-1680,0,70,-90,109,-429
18:37:47.027,,-120,-218,1009,-910,-350,70,-87,112,-427
18:37:47.045,,-110,-194,1025,70,-630,-210,-90,112,-424
18:37:47.064,,-109,-195,1029,-420,-420,-490,-96,106,-430
18:37:47.083,,-114,-213,1023,-1050,-350,-280,-91,114,-436
18:37:47.102,,-114,-214,1012,-560,-350,-350,-84,111,-433
18:37:47.121,,-112,-210,1013,-70,-350,-770,-94,109,-436
18:37:47.139,,-116,-212,1016,0,-350,-840,-91,112,-436
18:37:47.158,,-120,-204,1011,70,-210,-910,-88,108,-427
18:37:47.177,,-113,-201,1013,70,-700,-1120,-90,108,-429
18:37:47.196,,-110,-197,1031,560,-1120,-840,-93,106,-429
18:37:47.214,,-109,-193,1051,700,-1120,-490,-96,111,-423
18:37:47.233,,-116,-196,1038,-280,-490,-350,-91,105,-432
18:37:47.252,,-118,-213,1020,-1050,-70,-350,-87,108,-426
18:37:47.271,,-118,-221,1023,-840,-210,-280,-96,100,-426
18:37:47.290,,-117,-212,1025,-560,-140,-280,-87,109,-439
18:37:47.308,,-115,-205,1016,-980,70,-630,-97,117,-426
18:37:47.327,,-115,-204,1002,-1400,210,-910,-90,112,-433
18:37:47.346,,-114,-208,1003,-1470,-280,-700,-90,109,-435
18:37:47.365,,-108,-195,1031,-280,-980,-420,-94,112,-432
18:37:47.384,,-112,-195,1039,-490,-770,-70,-93,115,-429
18:37:47.402,,-118,-213,1017,-1470,-70,70,-88,114,-432
18:37:47.421,,-121,-228,997,-1610,350,210,-93,111,-427
18:37:47.440,,-119,-227,1003,-630,-140,210,-87,106,-427
18:37:47.459,,-115,-205,1022,560,-560,0,-94,118,-427
18:37:47.478,,-118,-199,1009,-560,0,-560,-94,114,-441
18:37:47.496,,-118,-215,990,-1540,210,-560,-87,102,-438
18:37:47.515,,-120,-213,992,-840,-420,-140,-87,115,-436
18:37:47.534,,-116,-200,1011,210,-980,-210,-90,109,-433
18:37:47.553,,-111,-199,1021,-70,-840,-490,-88,117,-432
18:37:47.571,,-113,-209,1013,-560,-630,-420,-93,112,-429
18:37:47.590,,-115,-213,1012,-210,-630,-280,-82,109,-432
18:37:47.609,,-115,-207,1017,210,-630,-420,-90,111,-430
18:37:47.628,,-116,-210,1017,-70,-490,-630,-96,103,-424
18:37:47.647,,-115,-208,1018,70,-630,-700,-88,109,-430
18:37:47.665,,-114,-196,1020,350,-630,-980,-87,114,-433
18:37:47.684,,-115,-203,1023,-280,-560,-1190,-87,114,-433
18:37:47.703,,-116,-210,1019,-420,-350,-980,-100,108,-432
18:37:47.722,,-117,-209,1005,-770,-70,-910,-90,112,-435
18:37:47.741,,-117,-213,997,-980,-70,-910,-91,115,-435
18:37:47.759,,-113,-210,1008,-490,-420,-700,-102,115,-436
18:37:47.778,,-110,-195,1019,280,-840,-490,-84,105,-429
18:37:47.797,,-107,-191,1023,70,-770,-560,-90,108,-429
18:37:47.816,,-109,-206,1018,-700,-490,-420,-84,118,-426
18:37:47.835,,-117,-219,1007,-910,-210,-140,-76,111,-432
18:37:47.853,,-116,-210,1009,-70,-350,-210,-93,112,-427
18:37:47.872,,-111,-197,1012,280,-350,-560,-90,115,-433
18:37:47.891,,-111,-202,1012,-350,-280,-770,-93,112,-432
18:37:47.910,,-111,-202,1012,-350,-280,-770,-93,117,-432
18:37:47.928,,-115,-214,1009,-1050,-420,-560,-97,114,-436
18:37:47.947,,-118,-209,1000,-770,-350,-490,-90,111,-430
18:37:47.966,,-112,-198,994,-560,-70,-840,-100,114,-436
18:37:47.985,,-109,-198,1007,-420,-560,-910,-99,106,-436
18:37:48.004,,-108,-199,1036,70,-1190,-350,-90,120,-429
18:37:48.022,,-112,-197,1038,-350,-840,-140,-93,115,-424
18:37:48.041,,-118,-221,1011,-1680,-70,-140,-94,108,-441
18:37:48.060,,-120,-228,997,-1400,70,70,-90,109,-435
18:37:48.079,,-118,-210,1008,-70,-140,-140,-91,118,-430
18:37:48.098,,-109,-195,1024,280,-840,-490,-91,109,-420
18:37:48.116,,-117,-202,1025,-490,-630,-770,-94,102,-433
18:37:48.135,,-119,-220,1025,-1400,-420,-840,-93,111,-441
18:37:48.154,,-112,-213,1038,-140,-1330,-210,-96,115,-438
18:37:48.173,,-113,-191,1051,910,-980,-280,-90,114,-429
18:37:48.191,,-120,-203,1037,-560,210,-840,-87,111,-424
18:37:48.210,,-126,-225,1000,-1890,490,-840,-96,118,-427
18:37:48.229,,-124,-229,1001,-1330,-140,-630,-84,115,-433
18:37:48.248,,-119,-218,1020,-630,-700,-630,-94,112,-435
18:37:48.267,,-111,-191,1036,0,-840,-630,-91,112,-441
18:37:48.285,,-109,-189,1038,-490,-280,-700,-94,115,-433
18:37:48.304,,-113,-225,1016,-2310,-210,-140,-91,109,-429
18:37:48.323,,-111,-219,1013,-840,-420,70,-85,115,-421
18:37:48.342,,-108,-204,1022,-140,-280,-350,-96,114,-432
18:37:48.361,,-112,-209,1013,-490,-210,-770,-96,109,-441
18:37:48.379,,-115,-204,1010,-210,-210,-1120,-91,114,-436
18:37:48.398,,-115,-206,1012,-280,-560,-1120,-93,112,-438
18:37:48.417,,-115,-198,1009,0,-490,-1120,-84,112,-426
18:37:48.436,,-115,-195,1003,-420,-140,-1190,-88,112,-438
18:37:48.455,,-121,-211,1000,-1260,-210,-840,-96,117,-439
18:37:48.473,,-122,-214,1012,-770,-910,0,-91,111,-441
18:37:48.492,,-119,-203,1027,-140,-1260,210,-91,118,-429
18:37:48.511,,-109,-210,1042,-490,-980,210,-88,108,-427
18:37:48.530,,-115,-217,1032,-910,-210,560,-93,103,-430
18:37:48.549,,-125,-226,991,-1890,840,350,-94,117,-441
18:37:48.567,,-122,-231,970,-2100,700,-420,-91,112,-436
18:37:48.586,,-110,-216,988,-210,-280,-980,-96,109,-436
18:37:48.605,,-104,-187,1001,560,-560,-1400,-94,109,-432
18:37:48.624,,-105,-186,996,-420,-350,-1750,-99,114,-438
18:37:48.642,,-109,-203,996,-560,-630,-1120,-94,120,-438
18:37:48.661,,-110,-208,1007,70,-1050,-350,-94,120,-438
18:37:48.680,,-108,-214,1032,770,-1540,420,-94,115,-421
18:37:48.699,,-112,-204,1045,1260,-1260,770,-93,108,-429
18:37:48.718,,-121,-209,1033,280,-350,490,-88,112,-429
18:37:48.736,,-127,-240,1010,-1190,140,350,-91,106,-421
18:37:48.755,,-127,-247,1004,-1050,-210,490,-90,106,-427
18:37:48.774,,-118,-209,1022,770,-840,210,-91,105,-427
18:37:48.793,,-108,-176,1037,1050,-840,-630,-94,111,-435
18:37:48.812,,-110,-193,1041,-490,-560,-980,-94,115,-438
18:37:48.830,,-121,-218,1027,-1330,-350,-630,-96,100,-433
18:37:48.849,,-121,-232,1020,-1120,-560,-350,-91,115,-438
18:37:48.868,,-110,-220,1031,560,-700,-490,-91,118,-432
18:37:48.887,,-102,-190,1042,1820,-420,-770,-96,111,-430
18:37:48.906,,-107,-192,1024,770,210,-980,-88,106,-432
18:37:48.924,,-117,-214,995,-1050,560,-1050,-91,115,-421
18:37:48.943,,-112,-218,1011,-350,-490,-700,-84,109,-432
18:37:48.962,,-113,-202,1029,700,-1190,-140,-90,105,-432
18:37:48.981,,-119,-197,1031,-140,-490,-210,-94,109,-426
18:37:49.-01,,-120,-209,1023,-1050,-140,-210,-91,118,-436
18:37:49.018,,-119,-218,1032,-700,-980,420,-87,111,-432
18:37:49.037,,-117,-217,1066,0,-1610,840,-91,106,-427
18:37:49.056,,-121,-220,1071,-560,-910,910,-84,114,-427
18:37:49.075,,-127,-228,1027,-1750,420,630,-91,115,-433
18:37:49.093,,-126,-220,998,-1190,910,-140,-93,114,-435
18:37:49.112,,-118,-218,1008,-700,140,-700,-96,109,-430
18:37:49.131,,-124,-214,1009,-770,0,-910,-94,120,-438
18:37:49.150,,-123,-209,990,-1540,210,-1260,-93,111,-433
18:37:49.169,,-118,-215,986,-1610,-280,-1050,-88,112,-439
18:37:49.187,,-114,-219,1028,-280,-1400,0,-91,108,-424
18:37:49.206,,-109,-204,1067,1260,-2310,910,-84,114,-432
18:37:49.225,,-103,-187,1071,1820,-1750,770,-87,114,-435
18:37:49.244,,-107,-203,1044,630,-70,70,-87,106,-429
18:37:49.263,,-119,-235,1003,-490,700,-210,-84,105,-430
18:37:49.281,,-121,-233,1002,700,-140,-560,-87,108,-427
18:37:49.300,,-116,-195,1041,2590,-1120,-1470,-88,103,-432
18:37:49.319,,-114,-185,1058,1610,-910,-2030,-93,117,-432
18:37:49.338,,-122,-211,1031,-1120,-140,-1820,-90,114,-433
18:37:49.357,,-119,-214,1020,-700,-630,-910,-93,117,-430
18:37:49.375,,-113,-189,1042,700,-1260,-420,-85,105,-420
18:37:49.394,,-109,-194,1064,-140,-840,-420,-97,115,-433
18:37:49.413,,-117,-217,1037,-1890,140,-210,-93,111,-426
18:37:49.432,,-123,-225,999,-2100,770,-140,-93,114,-439
18:37:49.451,,-117,-220,1000,-1120,490,-350,-94,114,-439
18:37:49.469,,-111,-205,1011,-280,210,-350,-97,108,-441
18:37:49.488,,-109,-184,999,-140,70,-630,-100,115,-432
18:37:49.507,,-105,-191,1001,-770,-700,-770,-94,106,-427
18:37:49.526,,-109,-205,1031,-630,-1540,-210,-88,106,-424
18:37:49.544,,-116,-204,1050,280,-1540,280,-88,106,-430
18:37:49.563,,-112,-191,1053,840,-1190,70,-87,111,-438
18:37:49.582,,-113,-203,1055,490,-560,-210,-85,106,-429
18:37:49.601,,-124,-218,1034,-350,210,-280,-99,112,-435
18:37:49.620,,-128,-223,1009,-770,350,-420,-91,115,-438
18:37:49.638,,-121,-214,1016,-560,-70,-630,-90,112,-424
18:37:49.657,,-119,-199,1032,-350,-280,-560,-90,112,-424
18:37:49.676,,-122,-204,1019,-1820,-70,-490,-93,115,-438
18:37:49.695,,-122,-204,1019,-2310,-280,-140,-85,118,-430
18:37:49.714,,-118,-215,1019,-2310,-280,-140,-88,117,-429
18:37:49.732,,-111,-214,1041,-1330,-1050,420,-96,115,-433
18:37:49.751,,-111,-205,1052,-840,-910,560,-85,117,-438
18:37:49.770,,-112,-216,1048,-1400,-280,420,-90,114,-435
18:37:49.789,,-115,-219,1027,-1050,140,70,-87,111,-429
18:37:49.808,,-114,-212,1028,-70,-70,-420,-88,105,-429
18:37:49.826,,-116,-210,1035,280,-210,-980,-91,102,-424
18:37:49.845,,-116,-202,1027,350,-280,-1260,-90,118,-439
18:37:49.864,,-114,-193,1024,630,-420,-1680,-96,108,-435
18:37:49.883,,-117,-195,1033,280,-630,-1610,-87,105,-430
18:37:49.901,,-121,-204,1046,-70,-910,-910,-99,111,-441
18:37:49.920,,-126,-205,1039,-770,-700,-420,-91,112,-445
18:37:49.939,,-120,-224,1037,-1330,-560,-210,-94,102,-435
18:37:49.958,,-119,-213,1036,-700,-140,0,-91,115,-430
18:37:49.977,,-116,-206,1027,-910,280,-210,-100,120,-441
18:37:49.995,,-117,-216,1018,-1540,280,-280,-94,112,-430
18:37:50.014,,-117,-221,1015,-1680,140,-210,-91,111,-435
18:37:50.033,,-115,-214,1003,-1470,140,-210,-87,106,-429
18:37:50.052,,-111,-209,1004,-980,-140,-350,-88,114,-423
18:37:50.071,,-107,-201,1026,140,-770,-350,-84,108,-430
18:37:50.089,,-103,-189,1046,770,-1260,-350,-94,106,-424
18:37:50.108,,-111,-196,1042,280,-840,-560,-87,106,-432
18:37:50.127,,-119,-219,1033,-700,-350,-490,-90,103,-433
18:37:50.146,,-126,-227,1025,-350,-350,-350,-91,114,-433
18:37:50.164,,-128,-214,1032,350,-420,-420,-84,105,-427
18:37:50.183,,-118,-191,1030,280,-280,-770,-84,112,-429
18:37:50.202,,-126,-207,1019,-2590,280,-980,-93,109,-433
18:37:50.221,,-118,-227,1020,-2660,-280,-840,-91,112,-430
18:37:50.240,,-124,-218,1013,-2030,-490,-350,-97,111,-426
18:37:50.258,,-124,-206,1026,-1680,-420,0,-97,108,-423
18:37:50.277,,-123,-206,1037,-1400,-280,210,-85,106,-430
18:37:50.296,,-115,-211,1026,-1610,-280,70,-91,109,-429
18:37:50.315,,-109,-221,1025,-1120,-700,70,-90,105,-445
18:37:50.334,,-111,-222,1023,-700,-1120,140,-90,112,-432
18:37:50.352,,-107,-212,1026,70,-1120,-350,-88,103,-433
18:37:50.371,,-108,-212,1032,-210,-980,-700,-91,111,-427
18:37:50.390,,-114,-221,1028,-420,-700,-700,-90,108,-435
18:37:50.409,,-116,-207,1009,-210,-490,-1120,-96,115,-436
18:37:50.428,,-107,-203,1019,350,-910,-1400,-94,106,-435
18:37:50.446,,-108,-195,1040,630,-1120,-1190,-94,111,-439
18:37:50.465,,-116,-198,1039,-70,-910,-700,-94,109,-433
18:37:50.484,,-124,-217,1014,-1400,-350,-350,-90,112,-438
18:37:50.503,,-125,-224,1013,-1260,-210,0,-91,105,-435
18:37:50.521,,-124,-217,1021,-280,-490,140,-96,112,-433
18:37:50.540,,-120,-200,1033,350,-700,-70,-85,109,-432
18:37:50.559,,-117,-200,1028,-350,-280,-490,-87,108,-427
18:37:50.578,,-116,-211,1012,-1050,210,-770,-94,109,-418
18:37:50.597,,-119,-213,980,-1260,700,-840,-93,108,-426
18:37:50.615,,-115,-210,980,-1190,210,-1120,-91,111,-427
18:37:50.634,,-110,-210,1010,-490,-630,-840,-94,100,-435
18:37:50.653,,-113,-197,1020,-420,-630,-560,-94,100,-435
18:37:50.672,,-117,-211,1004,-1540,-140,-280,-90,114,-429
18:37:50.691,,-118,-223,997,-1540,-420,210,-90,108,-433
18:37:50.709,,-113,-213,1018,140,-1190,560,-88,105,-423
18:37:50.728,,-108,-207,1037,350,-1050,420,-88,103,-423
18:37:50.747,,-113,-207,1025,-70,-420,-70,-91,108,-429
18:37:50.766,,-115,-215,1023,-350,-490,-560,-97,109,-430
18:37:50.785,,-113,-222,1031,-560,-1050,-770,-87,112,-438
18:37:50.803,,-117,-206,1038,-980,-1540,-1610,-96,109,-430
18:37:50.822,,-113,-204,1041,-2240,-1470,-2450,-100,109,-430
18:37:50.841,,-114,-196,1029,-3220,-1260,-3080,-94,112,-433
18:37:50.860,,-116,-223,1007,-5460,-1190,-2940,-91,114,-426
18:37:50.878,,-116,-212,1004,-4060,-1260,-2870,-93,102,-432
18:37:50.897,,-104,-200,1022,-2240,-1330,-2940,-90,115,-429
18:37:50.916,,-103,-196,1012,-2310,-1260,-2870,-85,103,-424
18:37:50.935,,-104,-200,1004,-1960,-840,-2380,-91,100,-426
18:37:50.954,,-110,-209,990,-2310,70,-1120,-94,103,-433
18:37:50.972,,-99,-244,1018,-700,-420,-840,-87,105,-433
18:37:50.991,,-121,-202,1024,1190,-1190,-700,-90,105,-430
18:37:51.010,,-114,-213,1031,280,-1330,-2240,-93,109,-442
18:37:51.029,,-116,-204,1019,-630,-1120,-2940,-85,112,-433
18:37:51.048,,-108,-215,1015,-630,-1890,-3010,-94,112,-447
18:37:51.066,,-104,-214,1016,0,-1960,-2940,-93,105,-424
18:37:51.085,,-99,-205,1028,490,-1750,-2590,-93,112,-435
18:37:51.104,,-101,-208,1027,-140,-1470,-2030,-96,112,-430
18:37:51.123,,-104,-220,1025,-1540,-1120,-1750,-88,108,-430
18:37:51.142,,-111,-228,1017,-1890,-420,-1260,-87,105,-427
18:37:51.160,,-113,-226,1004,-1610,-280,-770,-93,108,-421
18:37:51.179,,-110,-214,1016,-770,-420,-630,-100,115,-424
18:37:51.198,,-103,-216,1046,-910,-840,-210,-88,102,-423
18:37:51.217,,-101,-209,1046,-910,-1120,420,-91,106,-429
18:37:51.235,,-103,-218,1048,-1540,-1050,1190,-88,111,-423
18:37:51.254,,-100,-225,1053,-1540,-700,1890,-82,103,-429
18:37:51.273,,-106,-221,1037,-1470,70,1820,-90,109,-436
18:37:51.292,,-109,-226,1015,-2380,560,1260,-91,111,-430
18:37:51.311,,-113,-234,1007,-3010,420,350,-88,112,-438
18:37:51.329,,-113,-239,1014,-2030,-420,-490,-90,112,-435
18:37:51.348,,-110,-228,1030,-420,-910,-700,-81,102,-429
18:37:51.367,,-107,-209,1051,980,-1190,-490,-91,109,-432
18:37:51.386,,-107,-205,1054,490,-1050,-420,-90,112,-426
18:37:51.405,,-107,-215,1051,-1190,-420,-420,-85,109,-430
18:37:51.423,,-114,-230,1029,-3220,350,-910,-84,106,-435
18:37:51.442,,-118,-250,1010,-4340,140,-1260,-82,108,-429
18:37:51.461,,-116,-247,1007,-2380,-70,-1680,-91,109,-435
18:37:51.480,,-114,-232,1017,-840,-420,-1680,-87,106,-426
18:37:51.499,,-114,-232,1017,-840,-420,-1680,-84,108,-430
18:37:51.517,,-113,-216,1016,-770,-420,-1470,-93,109,-429
18:37:51.536,,-111,-211,1027,-1120,-770,-1120,-90,111,-433
18:37:51.555,,-107,-212,1037,-1610,-980,-980,-88,108,-433
18:37:51.574,,-102,-230,1049,-2240,-560,-700,-90,106,-429
18:37:51.592,,-110,-240,1047,-2380,420,-560,-84,109,-424
18:37:51.611,,-121,-246,1021,-3150,1120,-420,-82,109,-435
18:37:51.630,,-116,-262,1017,-3500,-140,-280,-79,108,-420
18:37:51.649,,-107,-260,1041,-560,-490,70,-79,108,-420
18:37:51.668,,-112,-226,1037,1540,280,280,-87,105,-423
18:37:51.686,,-122,-229,1004,70,980,-70,-90,112,-435
18:37:51.705,,-121,-239,991,-630,770,70,-84,109,-439
18:37:51.724,,-113,-234,1000,-210,-280,350,-90,109,-432
18:37:51.743,,-105,-226,1032,700,-1400,630,-79,111,-432
18:37:51.762,,-105,-231,1064,840,-980,1120,-87,111,-429
18:37:51.780,,-115,-230,1045,210,-70,1330,-85,109,-426
18:37:51.799,,-115,-234,1023,-210,-70,1120,-81,106,-436
18:37:51.818,,-112,-230,1029,350,-70,560,-87,108,-433
18:37:51.837,,-114,-230,1029,350,-140,0,-87,115,-438
18:37:51.856,,-117,-224,1027,350,-210,-700,-88,109,-424
18:37:51.874,,-122,-234,1023,-280,-70,-1120,-82,111,-433
18:37:51.893,,-123,-244,1021,-490,-420,-770,-76,111,-429
18:37:51.912,,-118,-236,1036,420,-1050,-280,-88,112,-429
18:37:51.931,,-107,-219,1055,1120,-1400,-210,-90,108,-436
18:37:51.949,,-110,-219,1054,210,-910,-350,-88,109,-444
18:37:51.968,,-112,-237,1040,-490,-560,-210,-82,112,-438
18:37:51.987,,-113,-228,1027,350,-630,-350,-88,109,-436
18:37:52.006,,-106,-216,1054,1890,-980,-1050,-82,99,-442
18:37:52.025,,-109,-218,1063,1330,-910,-1260,-94,114,-441
18:37:52.043,,-116,-235,1054,280,-630,-1050,-90,109,-432
18:37:52.062,,-118,-232,1040,140,-490,-980,-87,114,-421
18:37:52.081,,-114,-235,1061,490,-1260,-490,-87,103,-421
18:37:52.100,,-112,-218,1098,1890,-1680,-70,-85,109,-433
18:37:52.119,,-121,-218,1083,210,-840,-280,-90,112,-429
18:37:52.137,,-117,-244,1077,-1050,-770,-280,-94,108,-436
18:37:52.156,,-112,-225,1084,490,-420,-210,-88,112,-436
18:37:52.175,,-111,-215,1066,-210,350,-770,-93,111,-438
18:37:52.194,,-113,-228,1024,-2100,1120,-1400,-96,108,-442
18:37:52.213,,-116,-238,996,-2660,1120,-1820,-93,115,-438
18:37:52.231,,-108,-234,1006,-1470,-210,-1540,-93,112,-430
18:37:52.250,,-94,-211,1066,1190,-2100,-840,-88,118,-438
18:37:52.269,,-88,-175,1114,3080,-2170,-350,-93,115,-432
18:37:52.288,,-88,-177,1090,1470,-980,-280,-97,103,-429
18:37:52.306,,-91,-199,1046,70,-70,-770,-90,114,-439
18:37:52.325,,-103,-220,1021,-210,700,-1330,-88,114,-432
18:37:52.344,,-116,-232,980,-1120,1540,-2240,-88,111,-432
18:37:52.363,,-121,-239,957,-2310,1610,-3010,-87,105,-429
18:37:52.382,,-120,-224,961,-1470,980,-3220,-90,111,-436
18:37:52.400,,-107,-193,995,70,-350,-2800,-88,106,-427
18:37:52.419,,-98,-167,1036,1190,-980,-1960,-88,111,-423
18:37:52.438,,-100,-180,1047,-770,-210,-210,-96,114,-438
18:37:52.457,,-108,-213,983,-3640,630,1400,-87,115,-439
18:37:52.476,,-99,-217,940,-3500,350,1470,-81,108,-435
18:37:52.494,,-88,-215,990,-980,-490,980,-90,111,-433
18:37:52.513,,-106,-222,1017,-1050,210,980,-76,114,-438
18:37:52.532,,-128,-232,952,-3850,1820,420,-90,112,-438
18:37:52.551,,-128,-232,905,-4480,1820,-420,-87,108,-436
18:37:52.570,,-117,-217,934,-1960,-70,-350,-88,114,-435
18:37:52.588,,-110,-212,989,-490,-1750,490,-87,114,-438
18:37:52.607,,-107,-197,1022,-560,-1890,910,-84,111,-436
18:37:52.626,,-113,-222,1019,-2870,-1400,1400,-84,111,-436
18:37:52.645,,-117,-250,1022,-3360,-1610,2240,-93,105,-430
18:37:52.664,,-113,-252,1047,-1540,-1610,2660,-85,115,-433
18:37:52.682,,-113,-235,1030,-1120,0,1680,-84,108,-433
18:37:52.701,,-115,-247,985,-2590,1610,70,-84,109,-424
18:37:52.720,,-114,-263,947,-2870,1890,-980,-88,105,-439
18:37:52.739,,-110,-239,955,-560,700,-1890,-87,109,-433
18:37:52.757,,-97,-196,993,1960,-490,-2590,-88,117,-441
18:37:52.776,,-92,-176,1008,1820,-840,-3010,-91,112,-435
18:37:52.795,,-92,-185,1000,700,-700,-2870,-84,109,-436
18:37:52.814,,-101,-213,985,-420,-630,-2030,-85,115,-436
18:37:52.833,,-111,-238,981,-1190,-770,-910,-76,114,-444
18:37:52.851,,-120,-247,978,-910,-700,-350,-91,106,-439
18:37:52.870,,-122,-244,994,-350,-770,-210,-84,112,-433
18:37:52.889,,-123,-227,1015,350,-420,-70,-88,111,-438
18:37:52.908,,-123,-204,1001,-70,770,-420,-82,109,-435
18:37:52.927,,-126,-208,946,-2450,1820,-1190,-88,111,-432
18:37:52.945,,-122,-229,922,-3290,1330,-1400,-90,109,-439
18:37:52.964,,-112,-220,939,-1750,-210,-1260,-81,118,-438
18:37:52.983,,-106,-214,978,-770,-1540,-770,-88,106,-438
18:37:53.002,,-106,-210,1011,-560,-1890,-70,-85,106,-427
18:37:53.020,,-104,-213,1027,-420,-1820,560,-88,108,-433
18:37:53.039,,-113,-230,1006,-1330,-630,770,-76,111,-430
18:37:53.058,,-121,-261,969,-2520,210,630,-82,102,-432
18:37:53.077,,-114,-263,958,-1050,-420,0,-82,106,-433
18:37:53.096,,-103,-235,996,1610,-1540,-840,-87,112,-436
18:37:53.114,,-99,-208,1050,3080,-2030,-1400,-93,112,-441
18:37:53.133,,-107,-207,1053,1470,-1050,-1470,-82,106,-429
18:37:53.152,,-112,-226,1016,-560,0,-1260,-91,109,-426
18:37:53.171,,-114,-240,987,-1120,0,-770,-88,109,-442
18:37:53.190,,-114,-240,989,-280,-630,-700,-82,111,-433
